Time,Ax,Ay,Az,Gx,Gy,Gz,Mx,My,Mz,Temp,Humidity,Pressure,Mic,Light
2022-11-02 15:21:32,876,277,-443,0,5,-2,18,72,73,32,33.95,1018.04,1,0
2022-11-02 15:21:32,876,277,-443,0,5,-2,18,72,73,32,33.95,1018.04,1,0
2022-11-02 15:21:32,876,277,-443,0,5,-2,18,72,73,32,33.95,1018.04,1,0
2022-11-02 15:21:32,876,277,-443,0,5,-2,18,72,73,32,33.95,1018.04,1,0
2022-11-02 15:21:32,876,277,-443,0,5,-2,18,72,73,32,33.95,1018.04,1,0
2022-11-02 15:21:32,884,366,-406,0,2,-2,18,74,76,32,33.95,1018.04,1,0
2022-11-02 15:21:32,884,366,-406,0,2,-2,18,74,76,32,33.95,1018.04,1,0
2022-11-02 15:21:32,884,366,-406,0,2,-2,18,74,76,32,33.95,1018.04,1,0
2022-11-02 15:21:32,884,366,-406,0,2,-2,18,74,76,32,33.95,1018.04,1,0
2022-11-02 15:21:32,884,366,-406,0,2,-2,18,74,76,32,33.95,1018.04,1,0
2022-11-02 15:21:32,888,353,-406,3,0,-3,17,72,76,32,33.95,1018.04,1,0
2022-11-02 15:21:32,888,353,-406,3,0,-3,17,72,76,32,33.95,1018.04,1,0
2022-11-02 15:21:32,888,353,-406,3,0,-3,17,72,76,32,33.95,1018.04,1,0
2022-11-02 15:21:32,888,353,-406,3,0,-3,17,72,76,32,33.95,1018.04,1,0
2022-11-02 15:21:32,888,353,-406,3,0,-3,17,72,76,32,33.95,1018.04,1,0
2022-11-02 15:21:32,895,314,-429,5,1,0,16,72,71,32,34.04,1018.18,1,0
2022-11-02 15:21:32,895,314,-429,5,1,0,16,72,71,32,34.04,1018.18,1,0
2022-11-02 15:21:32,895,314,-429,5,1,0,16,72,71,32,34.04,1018.18,1,0
2022-11-02 15:21:32,895,314,-429,5,1,0,16,72,71,32,34.04,1018.18,1,0
2022-11-02 15:21:32,895,314,-429,5,1,0,16,72,71,32,34.04,1018.18,1,0
2022-11-02 15:21:32,878,333,-443,0,0,1,15,73,76,32,34.04,1018.18,1,0
2022-11-02 15:21:32,878,333,-443,0,0,1,15,73,76,32,34.04,1018.18,1,0
2022-11-02 15:21:32,878,333,-443,0,0,1,15,73,76,32,34.04,1018.18,1,0
2022-11-02 15:21:32,878,333,-443,0,0,1,15,73,76,32,34.04,1018.18,1,0
2022-11-02 15:21:32,878,333,-443,0,0,1,15,73,76,32,34.04,1018.18,1,0
2022-11-02 15:21:32,884,329,-406,0,1,0,16,72,76,32,34.04,1018.18,1,0
2022-11-02 15:21:32,884,329,-406,0,1,0,16,72,76,32,34.04,1018.18,1,0
2022-11-02 15:21:32,884,329,-406,0,1,0,16,72,76,32,34.04,1018.18,1,0
2022-11-02 15:21:32,884,329,-406,0,1,0,16,72,76,32,34.04,1018.18,1,0
2022-11-02 15:21:32,884,329,-406,0,1,0,16,72,76,32,34.04,1018.18,1,0
2022-11-02 15:21:32,872,324,-415,0,0,0,16,73,77,32,34.04,1018.18,1,0
2022-11-02 15:21:32,872,324,-415,0,0,0,16,73,77,32,34.04,1018.18,1,0
2022-11-02 15:21:32,872,324,-415,0,0,0,16,73,77,32,34.04,1018.18,1,0
2022-11-02 15:21:32,872,324,-415,0,0,0,16,73,77,32,34.04,1018.18,1,0
2022-11-02 15:21:32,872,324,-415,0,0,0,16,73,77,32,34.04,1018.18,1,0
2022-11-02 15:21:33,888,310,-433,-1,0,0,15,71,75,32,34.04,1018.18,1,0
2022-11-02 15:21:33,888,310,-433,-1,0,0,15,71,75,32,34.04,1018.18,1,0
2022-11-02 15:21:33,888,310,-433,-1,0,0,15,71,75,32,34.04,1018.18,1,0
2022-11-02 15:21:33,888,310,-433,-1,0,0,15,71,75,32,34.04,1018.18,1,0
2022-11-02 15:21:33,888,310,-433,-1,0,0,15,71,75,32,34.04,1018.18,1,0
2022-11-02 15:21:33,880,324,-417,0,0,0,15,72,75,32,34.04,1018.18,1,0
2022-11-02 15:21:33,880,324,-417,0,0,0,15,72,75,32,34.04,1018.18,1,0
2022-11-02 15:21:33,880,324,-417,0,0,0,15,72,75,32,34.04,1018.18,1,0
2022-11-02 15:21:33,880,324,-417,0,0,0,15,72,75,32,34.04,1018.18,1,0
2022-11-02 15:21:33,880,324,-417,0,0,0,15,72,75,32,34.04,1018.18,1,0
2022-11-02 15:21:33,878,329,-429,0,0,0,17,74,75,32,34.04,1018.18,1,0
2022-11-02 15:21:33,878,329,-429,0,0,0,17,74,75,32,34.04,1018.18,1,0
2022-11-02 15:21:33,878,329,-429,0,0,0,17,74,75,32,34.04,1018.18,1,0
2022-11-02 15:21:33,878,329,-429,0,0,0,17,74,75,32,34.04,1018.18,1,0
2022-11-02 15:21:33,878,329,-429,0,0,0,17,74,75,32,34.04,1018.18,1,0
2022-11-02 15:21:33,874,329,-429,0,-1,0,15,73,75,32,34.04,1018.18,1,0
2022-11-02 15:21:33,874,329,-429,0,-1,0,15,73,75,32,34.04,1018.18,1,0
2022-11-02 15:21:33,874,329,-429,0,-1,0,15,73,75,32,34.04,1018.18,1,0
2022-11-02 15:21:33,874,329,-429,0,-1,0,15,73,75,32,34.04,1018.18,1,0
2022-11-02 15:21:33,874,329,-429,0,-1,0,15,73,75,32,34.04,1018.18,1,0
2022-11-02 15:21:33,868,331,-433,-1,0,0,19,72,75,32,34.04,1018.18,1,0
2022-11-02 15:21:33,868,331,-433,-1,0,0,19,72,75,32,34.04,1018.18,1,0
2022-11-02 15:21:33,868,331,-433,-1,0,0,19,72,75,32,34.04,1018.18,1,0
2022-11-02 15:21:33,868,331,-433,-1,0,0,19,72,75,32,34.04,1018.18,1,0
2022-11-02 15:21:33,868,331,-433,-1,0,0,19,72,75,32,34.04,1018.18,1,0
2022-11-02 15:21:33,876,333,-435,0,0,0,15,74,75,32,34.04,1018.18,1,0
2022-11-02 15:21:33,876,333,-435,0,0,0,15,74,75,32,34.04,1018.18,1,0
2022-11-02 15:21:33,876,333,-435,0,0,0,15,74,75,32,34.04,1018.18,1,0
2022-11-02 15:21:33,876,333,-435,0,0,0,15,74,75,32,34.04,1018.18,1,0
2022-11-02 15:21:33,876,333,-435,0,0,0,15,74,75,32,34.04,1018.18,1,0
2022-11-02 15:21:33,880,322,-433,0,0,0,16,73,72,32,34.05,1018.12,1,0
2022-11-02 15:21:33,880,322,-433,0,0,0,16,73,72,32,34.05,1018.12,1,0
2022-11-02 15:21:33,880,322,-433,0,0,0,16,73,72,32,34.05,1018.12,1,0
2022-11-02 15:21:33,880,322,-433,0,0,0,16,73,72,32,34.05,1018.12,1,0
2022-11-02 15:21:33,880,322,-433,0,0,0,16,73,72,32,34.05,1018.12,1,0
2022-11-02 15:21:33,876,333,-433,0,0,0,20,73,73,32,34.05,1018.12,1,0
2022-11-02 15:21:33,876,333,-433,0,0,0,20,73,73,32,34.05,1018.12,1,0
2022-11-02 15:21:33,876,333,-433,0,0,0,20,73,73,32,34.05,1018.12,1,0
2022-11-02 15:21:33,876,333,-433,0,0,0,20,73,73,32,34.05,1018.12,1,0
2022-11-02 15:21:33,876,333,-433,0,0,0,20,73,73,32,34.05,1018.12,1,0
2022-11-02 15:21:33,878,335,-433,0,0,0,18,73,75,32,34.05,1018.12,1,0
2022-11-02 15:21:33,878,335,-433,0,0,0,18,73,75,32,34.05,1018.12,1,0
2022-11-02 15:21:33,878,335,-433,0,0,0,18,73,75,32,34.05,1018.12,1,0
2022-11-02 15:21:33,878,335,-433,0,0,0,18,73,75,32,34.05,1018.12,1,0
2022-11-02 15:21:33,878,335,-433,0,0,0,18,73,75,32,34.05,1018.12,1,0
2022-11-02 15:21:33,886,329,-427,0,0,0,17,72,76,32,34.05,1018.12,1,0
2022-11-02 15:21:33,886,329,-427,0,0,0,17,72,76,32,34.05,1018.12,1,0
2022-11-02 15:21:33,886,329,-427,0,0,0,17,72,76,32,34.05,1018.12,1,0
2022-11-02 15:21:33,886,329,-427,0,0,0,17,72,76,32,34.05,1018.12,1,0
2022-11-02 15:21:33,886,329,-427,0,0,0,17,72,76,32,34.05,1018.12,1,0
2022-11-02 15:21:34,870,327,-441,0,0,0,19,76,71,32,34.05,1018.12,1,0
2022-11-02 15:21:34,870,327,-441,0,0,0,19,76,71,32,34.05,1018.12,1,0
2022-11-02 15:21:34,870,327,-441,0,0,0,19,76,71,32,34.05,1018.12,1,0
2022-11-02 15:21:34,870,327,-441,0,0,0,19,76,71,32,34.05,1018.12,1,0
2022-11-02 15:21:34,870,327,-441,0,0,0,19,76,71,32,34.05,1018.12,1,0
2022-11-02 15:21:34,870,335,-435,0,0,0,15,75,75,32,34.05,1018.12,1,0
2022-11-02 15:21:34,870,335,-435,0,0,0,15,75,75,32,34.05,1018.12,1,0
2022-11-02 15:21:34,870,335,-435,0,0,0,15,75,75,32,34.05,1018.12,1,0
2022-11-02 15:21:34,870,335,-435,0,0,0,15,75,75,32,34.05,1018.12,1,0
2022-11-02 15:21:34,870,335,-435,0,0,0,15,75,75,32,34.05,1018.12,1,0
2022-11-02 15:21:34,878,335,-443,0,0,0,17,73,70,32,34.05,1018.12,1,0
2022-11-02 15:21:34,878,335,-443,0,0,0,17,73,70,32,34.05,1018.12,1,0
2022-11-02 15:21:34,878,335,-443,0,0,0,17,73,70,32,34.05,1018.12,1,0
2022-11-02 15:21:34,878,335,-443,0,0,0,17,73,70,32,34.05,1018.12,1,0
2022-11-02 15:21:34,878,335,-443,0,0,0,17,73,70,32,34.05,1018.12,1,0
2022-11-02 15:21:34,868,333,-433,0,0,0,14,74,72,32,34.05,1018.12,1,0
2022-11-02 15:21:34,868,333,-433,0,0,0,14,74,72,32,34.05,1018.12,1,0
2022-11-02 15:21:34,868,333,-433,0,0,0,14,74,72,32,34.05,1018.12,1,0
2022-11-02 15:21:34,868,333,-433,0,0,0,14,74,72,32,34.05,1018.12,1,0
2022-11-02 15:21:34,868,333,-433,0,0,0,14,74,72,32,34.05,1018.12,1,0
2022-11-02 15:21:34,874,325,-425,0,0,0,16,75,70,32,34.05,1018.12,1,0
2022-11-02 15:21:34,874,325,-425,0,0,0,16,75,70,32,34.05,1018.12,1,0
2022-11-02 15:21:34,874,325,-425,0,0,0,16,75,70,32,34.05,1018.12,1,0
2022-11-02 15:21:34,874,325,-425,0,0,0,16,75,70,32,34.05,1018.12,1,0
2022-11-02 15:21:34,874,325,-425,0,0,0,16,75,70,32,34.05,1018.12,1,0
2022-11-02 15:21:34,874,329,-435,0,1,0,18,72,76,32,34.05,1018.12,1,0
2022-11-02 15:21:34,874,329,-435,0,1,0,18,72,76,32,34.05,1018.12,1,0
2022-11-02 15:21:34,874,329,-435,0,1,0,18,72,76,32,34.05,1018.12,1,0
2022-11-02 15:21:34,874,329,-435,0,1,0,18,72,76,32,34.05,1018.12,1,0
2022-11-02 15:21:34,874,329,-435,0,1,0,18,72,76,32,34.05,1018.12,1,0
2022-11-02 15:21:34,882,331,-435,0,0,0,18,74,75,32,34.05,1018.17,1,0
2022-11-02 15:21:34,882,331,-435,0,0,0,18,74,75,32,34.05,1018.17,1,0
2022-11-02 15:21:34,882,331,-435,0,0,0,18,74,75,32,34.05,1018.17,1,0
2022-11-02 15:21:34,882,331,-435,0,0,0,18,74,75,32,34.05,1018.17,1,0
2022-11-02 15:21:34,882,331,-435,0,0,0,18,74,75,32,34.05,1018.17,1,0
2022-11-02 15:21:34,870,333,-439,0,1,0,16,74,73,32,34.05,1018.17,1,0
2022-11-02 15:21:34,870,333,-439,0,1,0,16,74,73,32,34.05,1018.17,1,0
2022-11-02 15:21:34,870,333,-439,0,1,0,16,74,73,32,34.05,1018.17,1,0
2022-11-02 15:21:34,870,333,-439,0,1,0,16,74,73,32,34.05,1018.17,1,0
2022-11-02 15:21:34,870,333,-439,0,1,0,16,74,73,32,34.05,1018.17,1,0
2022-11-02 15:21:34,876,325,-427,0,1,0,16,74,75,32,34.05,1018.17,1,0
2022-11-02 15:21:34,876,325,-427,0,1,0,16,74,75,32,34.05,1018.17,1,0
2022-11-02 15:21:34,876,325,-427,0,1,0,16,74,75,32,34.05,1018.17,1,0
2022-11-02 15:21:34,876,325,-427,0,1,0,16,74,75,32,34.05,1018.17,1,0
2022-11-02 15:21:34,876,325,-427,0,1,0,16,74,75,32,34.05,1018.17,1,0
2022-11-02 15:21:34,878,327,-431,0,1,0,14,74,74,32,34.05,1018.17,1,0
2022-11-02 15:21:34,878,327,-431,0,1,0,14,74,74,32,34.05,1018.17,1,0
2022-11-02 15:21:34,878,327,-431,0,1,0,14,74,74,32,34.05,1018.17,1,0
2022-11-02 15:21:34,878,327,-431,0,1,0,14,74,74,32,34.05,1018.17,1,0
2022-11-02 15:21:34,878,327,-431,0,1,0,14,74,74,32,34.05,1018.17,1,0
2022-11-02 15:21:35,888,324,-431,0,0,0,16,73,73,32,34.05,1018.17,1,0
2022-11-02 15:21:35,888,324,-431,0,0,0,16,73,73,32,34.05,1018.17,1,0
2022-11-02 15:21:35,888,324,-431,0,0,0,16,73,73,32,34.05,1018.17,1,0
2022-11-02 15:21:35,888,324,-431,0,0,0,16,73,73,32,34.05,1018.17,1,0
2022-11-02 15:21:35,888,324,-431,0,0,0,16,73,73,32,34.05,1018.17,1,0
2022-11-02 15:21:35,882,331,-425,0,0,0,15,74,76,32,34.05,1018.17,1,0
2022-11-02 15:21:35,882,331,-425,0,0,0,15,74,76,32,34.05,1018.17,1,0
2022-11-02 15:21:35,882,331,-425,0,0,0,15,74,76,32,34.05,1018.17,1,0
2022-11-02 15:21:35,882,331,-425,0,0,0,15,74,76,32,34.05,1018.17,1,0
2022-11-02 15:21:35,882,331,-425,0,0,0,15,74,76,32,34.05,1018.17,1,0
2022-11-02 15:21:35,882,320,-431,0,0,0,18,73,70,32,34.05,1018.17,1,0
2022-11-02 15:21:35,882,320,-431,0,0,0,18,73,70,32,34.05,1018.17,1,0
2022-11-02 15:21:35,882,320,-431,0,0,0,18,73,70,32,34.05,1018.17,1,0
2022-11-02 15:21:35,882,320,-431,0,0,0,18,73,70,32,34.05,1018.17,1,0
2022-11-02 15:21:35,882,320,-431,0,0,0,18,73,70,32,34.05,1018.17,1,0
2022-11-02 15:21:35,878,324,-421,0,0,0,18,73,76,32,34.05,1018.17,1,0
2022-11-02 15:21:35,878,324,-421,0,0,0,18,73,76,32,34.05,1018.17,1,0
2022-11-02 15:21:35,878,324,-421,0,0,0,18,73,76,32,34.05,1018.17,1,0
2022-11-02 15:21:35,878,324,-421,0,0,0,18,73,76,32,34.05,1018.17,1,0
2022-11-02 15:21:35,878,324,-421,0,0,0,18,73,76,32,34.05,1018.17,1,0
2022-11-02 15:21:35,876,329,-435,0,0,0,17,74,75,32,34.05,1018.17,1,0
2022-11-02 15:21:35,876,329,-435,0,0,0,17,74,75,32,34.05,1018.17,1,0
2022-11-02 15:21:35,876,329,-435,0,0,0,17,74,75,32,34.05,1018.17,1,0
2022-11-02 15:21:35,876,329,-435,0,0,0,17,74,75,32,34.05,1018.17,1,0
2022-11-02 15:21:35,876,329,-435,0,0,0,17,74,75,32,34.05,1018.17,1,0
2022-11-02 15:21:35,882,325,-439,0,0,0,18,72,75,32,34.05,1018.17,1,0
2022-11-02 15:21:35,882,325,-439,0,0,0,18,72,75,32,34.05,1018.17,1,0
2022-11-02 15:21:35,882,325,-439,0,0,0,18,72,75,32,34.05,1018.17,1,0
2022-11-02 15:21:35,882,325,-439,0,0,0,18,72,75,32,34.05,1018.17,1,0
2022-11-02 15:21:35,882,325,-439,0,0,0,18,72,75,32,34.05,1018.17,1,0
2022-11-02 15:21:35,874,320,-419,0,0,0,16,71,75,32,34.05,1018.14,1,0
2022-11-02 15:21:35,874,320,-419,0,0,0,16,71,75,32,34.05,1018.14,1,0
2022-11-02 15:21:35,874,320,-419,0,0,0,16,71,75,32,34.05,1018.14,1,0
2022-11-02 15:21:35,874,320,-419,0,0,0,16,71,75,32,34.05,1018.14,1,0
2022-11-02 15:21:35,874,320,-419,0,0,0,16,71,75,32,34.05,1018.14,1,0
2022-11-02 15:21:35,878,329,-433,0,0,0,17,73,74,32,34.05,1018.14,1,0
2022-11-02 15:21:35,878,329,-433,0,0,0,17,73,74,32,34.05,1018.14,1,0
2022-11-02 15:21:35,878,329,-433,0,0,0,17,73,74,32,34.05,1018.14,1,0
2022-11-02 15:21:35,878,329,-433,0,0,0,17,73,74,32,34.05,1018.14,1,0
2022-11-02 15:21:35,878,329,-433,0,0,0,17,73,74,32,34.05,1018.14,1,0
2022-11-02 15:21:35,874,331,-423,0,0,0,17,72,74,32,34.05,1018.14,1,0
2022-11-02 15:21:35,874,331,-423,0,0,0,17,72,74,32,34.05,1018.14,1,0
2022-11-02 15:21:35,874,331,-423,0,0,0,17,72,74,32,34.05,1018.14,1,0
2022-11-02 15:21:35,874,331,-423,0,0,0,17,72,74,32,34.05,1018.14,1,0
2022-11-02 15:21:35,874,331,-423,0,0,0,17,72,74,32,34.05,1018.14,1,0
2022-11-02 15:21:35,874,327,-429,0,0,0,15,74,75,32,34.05,1018.14,1,0
2022-11-02 15:21:35,874,327,-429,0,0,0,15,74,75,32,34.05,1018.14,1,0
2022-11-02 15:21:35,874,327,-429,0,0,0,15,74,75,32,34.05,1018.14,1,0
2022-11-02 15:21:35,874,327,-429,0,0,0,15,74,75,32,34.05,1018.14,1,0
2022-11-02 15:21:35,874,327,-429,0,0,0,15,74,75,32,34.05,1018.14,1,0
2022-11-02 15:21:36,870,325,-443,0,0,0,17,72,71,32,34.05,1018.14,1,0
2022-11-02 15:21:36,870,325,-443,0,0,0,17,72,71,32,34.05,1018.14,1,0
2022-11-02 15:21:36,870,325,-443,0,0,0,17,72,71,32,34.05,1018.14,1,0
2022-11-02 15:21:36,870,325,-443,0,0,0,17,72,71,32,34.05,1018.14,1,0
2022-11-02 15:21:36,870,325,-443,0,0,0,17,72,71,32,34.05,1018.14,1,0
2022-11-02 15:21:36,876,331,-445,0,0,0,17,71,76,32,34.05,1018.14,1,0
2022-11-02 15:21:36,876,331,-445,0,0,0,17,71,76,32,34.05,1018.14,1,0
2022-11-02 15:21:36,876,331,-445,0,0,0,17,71,76,32,34.05,1018.14,1,0
2022-11-02 15:21:36,876,331,-445,0,0,0,17,71,76,32,34.05,1018.14,1,0
2022-11-02 15:21:36,876,331,-445,0,0,0,17,71,76,32,34.05,1018.14,1,0
2022-11-02 15:21:36,880,337,-437,0,0,0,18,75,71,32,34.05,1018.14,1,0
2022-11-02 15:21:36,880,337,-437,0,0,0,18,75,71,32,34.05,1018.14,1,0
2022-11-02 15:21:36,880,337,-437,0,0,0,18,75,71,32,34.05,1018.14,1,0
2022-11-02 15:21:36,880,337,-437,0,0,0,18,75,71,32,34.05,1018.14,1,0
2022-11-02 15:21:36,880,337,-437,0,0,0,18,75,71,32,34.05,1018.14,1,0
2022-11-02 15:21:36,874,325,-429,0,0,0,14,76,73,32,34.05,1018.14,1,0
2022-11-02 15:21:36,874,325,-429,0,0,0,14,76,73,32,34.05,1018.14,1,0
2022-11-02 15:21:36,874,325,-429,0,0,0,14,76,73,32,34.05,1018.14,1,0
2022-11-02 15:21:36,874,325,-429,0,0,0,14,76,73,32,34.05,1018.14,1,0
2022-11-02 15:21:36,874,325,-429,0,0,0,14,76,73,32,34.05,1018.14,1,0
2022-11-02 15:21:36,880,337,-437,0,0,0,16,74,74,32,34.05,1018.14,1,0
2022-11-02 15:21:36,880,337,-437,0,0,0,16,74,74,32,34.05,1018.14,1,0
2022-11-02 15:21:36,880,337,-437,0,0,0,16,74,74,32,34.05,1018.14,1,0
2022-11-02 15:21:36,880,337,-437,0,0,0,16,74,74,32,34.05,1018.14,1,0
2022-11-02 15:21:36,880,337,-437,0,0,0,16,74,74,32,34.05,1018.14,1,0
2022-11-02 15:21:36,874,331,-441,0,-1,0,15,73,77,32,34.05,1018.14,1,0
2022-11-02 15:21:36,874,331,-441,0,-1,0,15,73,77,32,34.05,1018.14,1,0
2022-11-02 15:21:36,874,331,-441,0,-1,0,15,73,77,32,34.05,1018.14,1,0
2022-11-02 15:21:36,874,331,-441,0,-1,0,15,73,77,32,34.05,1018.14,1,0
2022-11-02 15:21:36,874,331,-441,0,-1,0,15,73,77,32,34.05,1018.14,1,0
2022-11-02 15:21:36,874,331,-443,0,0,0,18,72,70,32,34.08,1018.12,1,0
2022-11-02 15:21:36,874,331,-443,0,0,0,18,72,70,32,34.08,1018.12,1,0
2022-11-02 15:21:36,874,331,-443,0,0,0,18,72,70,32,34.08,1018.12,1,0
2022-11-02 15:21:36,874,331,-443,0,0,0,18,72,70,32,34.08,1018.12,1,0
2022-11-02 15:21:36,874,331,-443,0,0,0,18,72,70,32,34.08,1018.12,1,0
2022-11-02 15:21:36,872,331,-437,0,-1,0,15,73,70,32,34.08,1018.12,1,0
2022-11-02 15:21:36,872,331,-437,0,-1,0,15,73,70,32,34.08,1018.12,1,0
2022-11-02 15:21:36,872,331,-437,0,-1,0,15,73,70,32,34.08,1018.12,1,0
2022-11-02 15:21:36,872,331,-437,0,-1,0,15,73,70,32,34.08,1018.12,1,0
2022-11-02 15:21:36,872,331,-437,0,-1,0,15,73,70,32,34.08,1018.12,1,0
2022-11-02 15:21:36,874,337,-452,1,0,0,15,75,73,32,34.08,1018.12,1,0
2022-11-02 15:21:36,874,337,-452,1,0,0,15,75,73,32,34.08,1018.12,1,0
2022-11-02 15:21:36,874,337,-452,1,0,0,15,75,73,32,34.08,1018.12,1,0
2022-11-02 15:21:36,874,337,-452,1,0,0,15,75,73,32,34.08,1018.12,1,0
2022-11-02 15:21:36,874,337,-452,1,0,0,15,75,73,32,34.08,1018.12,1,0
2022-11-02 15:21:36,880,335,-433,1,2,0,14,75,72,32,34.08,1018.12,1,0
2022-11-02 15:21:36,880,335,-433,1,2,0,14,75,72,32,34.08,1018.12,1,0
2022-11-02 15:21:36,880,335,-433,1,2,0,14,75,72,32,34.08,1018.12,1,0
2022-11-02 15:21:36,880,335,-433,1,2,0,14,75,72,32,34.08,1018.12,1,0
2022-11-02 15:21:36,880,335,-433,1,2,0,14,75,72,32,34.08,1018.12,1,0
2022-11-02 15:21:36,872,325,-435,0,1,0,14,74,74,32,34.08,1018.12,1,0
2022-11-02 15:21:36,872,325,-435,0,1,0,14,74,74,32,34.08,1018.12,1,0
2022-11-02 15:21:36,872,325,-435,0,1,0,14,74,74,32,34.08,1018.12,1,0
2022-11-02 15:21:36,872,325,-435,0,1,0,14,74,74,32,34.08,1018.12,1,0
2022-11-02 15:21:36,872,325,-435,0,1,0,14,74,74,32,34.08,1018.12,1,0
2022-11-02 15:21:37,880,333,-441,1,1,0,19,74,71,32,34.08,1018.12,1,0
2022-11-02 15:21:37,880,333,-441,1,1,0,19,74,71,32,34.08,1018.12,1,0
2022-11-02 15:21:37,880,333,-441,1,1,0,19,74,71,32,34.08,1018.12,1,0
2022-11-02 15:21:37,880,333,-441,1,1,0,19,74,71,32,34.08,1018.12,1,0
2022-11-02 15:21:37,880,333,-441,1,1,0,19,74,71,32,34.08,1018.12,1,0
2022-11-02 15:21:37,872,327,-439,1,2,0,16,76,68,32,34.08,1018.12,1,0
2022-11-02 15:21:37,872,327,-439,1,2,0,16,76,68,32,34.08,1018.12,1,0
2022-11-02 15:21:37,872,327,-439,1,2,0,16,76,68,32,34.08,1018.12,1,0
2022-11-02 15:21:37,872,327,-439,1,2,0,16,76,68,32,34.08,1018.12,1,0
2022-11-02 15:21:37,872,327,-439,1,2,0,16,76,68,32,34.08,1018.12,1,0
2022-11-02 15:21:37,876,324,-421,0,3,0,16,74,69,32,34.08,1018.12,1,0
2022-11-02 15:21:37,876,324,-421,0,3,0,16,74,69,32,34.08,1018.12,1,0
2022-11-02 15:21:37,876,324,-421,0,3,0,16,74,69,32,34.08,1018.12,1,0
2022-11-02 15:21:37,876,324,-421,0,3,0,16,74,69,32,34.08,1018.12,1,0
2022-11-02 15:21:37,876,324,-421,0,3,0,16,74,69,32,34.08,1018.12,1,0
2022-11-02 15:21:37,878,320,-423,1,2,0,13,76,76,32,34.08,1018.12,1,0
2022-11-02 15:21:37,878,320,-423,1,2,0,13,76,76,32,34.08,1018.12,1,0
2022-11-02 15:21:37,878,320,-423,1,2,0,13,76,76,32,34.08,1018.12,1,0
2022-11-02 15:21:37,878,320,-423,1,2,0,13,76,76,32,34.08,1018.12,1,0
2022-11-02 15:21:37,878,320,-423,1,2,0,13,76,76,32,34.08,1018.12,1,0
2022-11-02 15:21:37,884,329,-407,0,2,0,15,75,74,32,34.08,1018.12,1,0
2022-11-02 15:21:37,884,329,-407,0,2,0,15,75,74,32,34.08,1018.12,1,0
2022-11-02 15:21:37,884,329,-407,0,2,0,15,75,74,32,34.08,1018.12,1,0
2022-11-02 15:21:37,884,329,-407,0,2,0,15,75,74,32,34.08,1018.12,1,0
2022-11-02 15:21:37,884,329,-407,0,2,0,15,75,74,32,34.08,1018.12,1,0
2022-11-02 15:21:37,880,324,-411,-1,0,0,15,73,79,32,34.08,1018.14,1,0
2022-11-02 15:21:37,880,324,-411,-1,0,0,15,73,79,32,34.08,1018.14,1,0
2022-11-02 15:21:37,880,324,-411,-1,0,0,15,73,79,32,34.08,1018.14,1,0
2022-11-02 15:21:37,880,324,-411,-1,0,0,15,73,79,32,34.08,1018.14,1,0
2022-11-02 15:21:37,880,324,-411,-1,0,0,15,73,79,32,34.08,1018.14,1,0
2022-11-02 15:21:37,888,314,-425,0,0,0,16,71,75,32,34.08,1018.14,1,0
2022-11-02 15:21:37,888,314,-425,0,0,0,16,71,75,32,34.08,1018.14,1,0
2022-11-02 15:21:37,888,314,-425,0,0,0,16,71,75,32,34.08,1018.14,1,0
2022-11-02 15:21:37,888,314,-425,0,0,0,16,71,75,32,34.08,1018.14,1,0
2022-11-02 15:21:37,888,314,-425,0,0,0,16,71,75,32,34.08,1018.14,1,0
2022-11-02 15:21:37,882,322,-413,-2,0,0,13,73,71,32,34.08,1018.14,1,0
2022-11-02 15:21:37,882,322,-413,-2,0,0,13,73,71,32,34.08,1018.14,1,0
2022-11-02 15:21:37,882,322,-413,-2,0,0,13,73,71,32,34.08,1018.14,1,0
2022-11-02 15:21:37,882,322,-413,-2,0,0,13,73,71,32,34.08,1018.14,1,0
2022-11-02 15:21:37,882,322,-413,-2,0,0,13,73,71,32,34.08,1018.14,1,0
2022-11-02 15:21:37,874,333,-423,0,-2,0,15,71,75,32,34.08,1018.14,1,0
2022-11-02 15:21:37,874,333,-423,0,-2,0,15,71,75,32,34.08,1018.14,1,0
2022-11-02 15:21:37,874,333,-423,0,-2,0,15,71,75,32,34.08,1018.14,1,0
2022-11-02 15:21:37,874,333,-423,0,-2,0,15,71,75,32,34.08,1018.14,1,0
2022-11-02 15:21:37,874,333,-423,0,-2,0,15,71,75,32,34.08,1018.14,1,0
2022-11-02 15:21:37,886,312,-437,0,0,0,16,74,73,32,34.08,1018.14,1,0
2022-11-02 15:21:37,886,312,-437,0,0,0,16,74,73,32,34.08,1018.14,1,0
2022-11-02 15:21:37,886,312,-437,0,0,0,16,74,73,32,34.08,1018.14,1,0
2022-11-02 15:21:37,886,312,-437,0,0,0,16,74,73,32,34.08,1018.14,1,0
2022-11-02 15:21:37,886,312,-437,0,0,0,16,74,73,32,34.08,1018.14,1,0
2022-11-02 15:21:38,872,329,-419,0,-1,0,13,72,73,32,34.08,1018.14,1,0
2022-11-02 15:21:38,872,329,-419,0,-1,0,13,72,73,32,34.08,1018.14,1,0
2022-11-02 15:21:38,872,329,-419,0,-1,0,13,72,73,32,34.08,1018.14,1,0
2022-11-02 15:21:38,872,329,-419,0,-1,0,13,72,73,32,34.08,1018.14,1,0
2022-11-02 15:21:38,872,329,-419,0,-1,0,13,72,73,32,34.08,1018.14,1,0
2022-11-02 15:21:38,876,306,-452,0,0,0,18,75,75,32,34.08,1018.14,1,0
2022-11-02 15:21:38,876,306,-452,0,0,0,18,75,75,32,34.08,1018.14,1,0
2022-11-02 15:21:38,876,306,-452,0,0,0,18,75,75,32,34.08,1018.14,1,0
2022-11-02 15:21:38,876,306,-452,0,0,0,18,75,75,32,34.08,1018.14,1,0
2022-11-02 15:21:38,876,306,-452,0,0,0,18,75,75,32,34.08,1018.14,1,0
2022-11-02 15:21:38,880,314,-429,-1,0,0,16,74,73,32,34.08,1018.14,1,0
2022-11-02 15:21:38,880,314,-429,-1,0,0,16,74,73,32,34.08,1018.14,1,0
2022-11-02 15:21:38,880,314,-429,-1,0,0,16,74,73,32,34.08,1018.14,1,0
2022-11-02 15:21:38,880,314,-429,-1,0,0,16,74,73,32,34.08,1018.14,1,0
2022-11-02 15:21:38,880,314,-429,-1,0,0,16,74,73,32,34.08,1018.14,1,0
2022-11-02 15:21:38,876,329,-433,-1,-1,0,18,71,72,32,34.08,1018.14,1,0
2022-11-02 15:21:38,876,329,-433,-1,-1,0,18,71,72,32,34.08,1018.14,1,0
2022-11-02 15:21:38,876,329,-433,-1,-1,0,18,71,72,32,34.08,1018.14,1,0
2022-11-02 15:21:38,876,329,-433,-1,-1,0,18,71,72,32,34.08,1018.14,1,0
2022-11-02 15:21:38,876,329,-433,-1,-1,0,18,71,72,32,34.08,1018.14,1,0
2022-11-02 15:21:38,886,325,-439,0,0,0,15,72,75,32,34.08,1018.14,1,0
2022-11-02 15:21:38,886,325,-439,0,0,0,15,72,75,32,34.08,1018.14,1,0
2022-11-02 15:21:38,886,325,-439,0,0,0,15,72,75,32,34.08,1018.14,1,0
2022-11-02 15:21:38,886,325,-439,0,0,0,15,72,75,32,34.08,1018.14,1,0
2022-11-02 15:21:38,886,325,-439,0,0,0,15,72,75,32,34.08,1018.14,1,0
2022-11-02 15:21:38,880,331,-423,0,0,0,17,73,72,32,34.08,1018.12,1,0
2022-11-02 15:21:38,880,331,-423,0,0,0,17,73,72,32,34.08,1018.12,1,0
2022-11-02 15:21:38,880,331,-423,0,0,0,17,73,72,32,34.08,1018.12,1,0
2022-11-02 15:21:38,880,331,-423,0,0,0,17,73,72,32,34.08,1018.12,1,0
2022-11-02 15:21:38,880,331,-423,0,0,0,17,73,72,32,34.08,1018.12,1,0
2022-11-02 15:21:38,872,324,-425,0,0,0,14,74,74,32,34.08,1018.12,1,0
2022-11-02 15:21:38,872,324,-425,0,0,0,14,74,74,32,34.08,1018.12,1,0
2022-11-02 15:21:38,872,324,-425,0,0,0,14,74,74,32,34.08,1018.12,1,0
2022-11-02 15:21:38,872,324,-425,0,0,0,14,74,74,32,34.08,1018.12,1,0
2022-11-02 15:21:38,872,324,-425,0,0,0,14,74,74,32,34.08,1018.12,1,0
2022-11-02 15:21:38,876,327,-431,0,-1,0,14,71,76,32,34.08,1018.12,1,0
2022-11-02 15:21:38,876,327,-431,0,-1,0,14,71,76,32,34.08,1018.12,1,0
2022-11-02 15:21:38,876,327,-431,0,-1,0,14,71,76,32,34.08,1018.12,1,0
2022-11-02 15:21:38,876,327,-431,0,-1,0,14,71,76,32,34.08,1018.12,1,0
2022-11-02 15:21:38,876,327,-431,0,-1,0,14,71,76,32,34.08,1018.12,1,0
2022-11-02 15:21:38,870,333,-435,0,0,0,15,73,72,32,34.08,1018.12,1,0
2022-11-02 15:21:38,870,333,-435,0,0,0,15,73,72,32,34.08,1018.12,1,0
2022-11-02 15:21:38,870,333,-435,0,0,0,15,73,72,32,34.08,1018.12,1,0
2022-11-02 15:21:38,870,333,-435,0,0,0,15,73,72,32,34.08,1018.12,1,0
2022-11-02 15:21:38,870,333,-435,0,0,0,15,73,72,32,34.08,1018.12,1,0
2022-11-02 15:21:38,878,327,-433,0,1,0,16,71,75,32,34.08,1018.12,1,0
2022-11-02 15:21:38,878,327,-433,0,1,0,16,71,75,32,34.08,1018.12,1,0
2022-11-02 15:21:38,878,327,-433,0,1,0,16,71,75,32,34.08,1018.12,1,0
2022-11-02 15:21:38,878,327,-433,0,1,0,16,71,75,32,34.08,1018.12,1,0
2022-11-02 15:21:38,878,327,-433,0,1,0,16,71,75,32,34.08,1018.12,1,0
2022-11-02 15:21:39,876,320,-427,0,1,0,14,72,73,32,34.08,1018.12,1,0
2022-11-02 15:21:39,876,320,-427,0,1,0,14,72,73,32,34.08,1018.12,1,0
2022-11-02 15:21:39,876,320,-427,0,1,0,14,72,73,32,34.08,1018.12,1,0
2022-11-02 15:21:39,876,320,-427,0,1,0,14,72,73,32,34.08,1018.12,1,0
2022-11-02 15:21:39,876,320,-427,0,1,0,14,72,73,32,34.08,1018.12,1,0
2022-11-02 15:21:39,878,329,-435,0,1,0,17,72,73,32,34.08,1018.12,1,0
2022-11-02 15:21:39,878,329,-435,0,1,0,17,72,73,32,34.08,1018.12,1,0
2022-11-02 15:21:39,878,329,-435,0,1,0,17,72,73,32,34.08,1018.12,1,0
2022-11-02 15:21:39,878,329,-435,0,1,0,17,72,73,32,34.08,1018.12,1,0
2022-11-02 15:21:39,878,329,-435,0,1,0,17,72,73,32,34.08,1018.12,1,0
2022-11-02 15:21:39,876,318,-433,1,2,0,17,73,77,32,34.08,1018.12,1,0
2022-11-02 15:21:39,876,318,-433,1,2,0,17,73,77,32,34.08,1018.12,1,0
2022-11-02 15:21:39,876,318,-433,1,2,0,17,73,77,32,34.08,1018.12,1,0
2022-11-02 15:21:39,876,318,-433,1,2,0,17,73,77,32,34.08,1018.12,1,0
2022-11-02 15:21:39,876,318,-433,1,2,0,17,73,77,32,34.08,1018.12,1,0
2022-11-02 15:21:39,876,333,-435,0,2,0,16,74,77,32,34.08,1018.12,1,0
2022-11-02 15:21:39,876,333,-435,0,2,0,16,74,77,32,34.08,1018.12,1,0
2022-11-02 15:21:39,876,333,-435,0,2,0,16,74,77,32,34.08,1018.12,1,0
2022-11-02 15:21:39,876,333,-435,0,2,0,16,74,77,32,34.08,1018.12,1,0
2022-11-02 15:21:39,876,333,-435,0,2,0,16,74,77,32,34.08,1018.12,1,0
2022-11-02 15:21:39,880,324,-427,0,0,0,16,71,73,32,34.08,1018.12,1,0
2022-11-02 15:21:39,880,324,-427,0,0,0,16,71,73,32,34.08,1018.12,1,0
2022-11-02 15:21:39,880,324,-427,0,0,0,16,71,73,32,34.08,1018.12,1,0
2022-11-02 15:21:39,880,324,-427,0,0,0,16,71,73,32,34.08,1018.12,1,0
2022-11-02 15:21:39,880,324,-427,0,0,0,16,71,73,32,34.08,1018.12,1,0
2022-11-02 15:21:39,876,324,-425,0,1,0,19,71,73,32,34.08,1018.18,1,0
2022-11-02 15:21:39,876,324,-425,0,1,0,19,71,73,32,34.08,1018.18,1,0
2022-11-02 15:21:39,876,324,-425,0,1,0,19,71,73,32,34.08,1018.18,1,0
2022-11-02 15:21:39,876,324,-425,0,1,0,19,71,73,32,34.08,1018.18,1,0
2022-11-02 15:21:39,876,324,-425,0,1,0,19,71,73,32,34.08,1018.18,1,0
2022-11-02 15:21:39,870,318,-411,0,1,0,16,72,72,32,34.08,1018.18,1,0
2022-11-02 15:21:39,870,318,-411,0,1,0,16,72,72,32,34.08,1018.18,1,0
2022-11-02 15:21:39,870,318,-411,0,1,0,16,72,72,32,34.08,1018.18,1,0
2022-11-02 15:21:39,870,318,-411,0,1,0,16,72,72,32,34.08,1018.18,1,0
2022-11-02 15:21:39,870,318,-411,0,1,0,16,72,72,32,34.08,1018.18,1,0
2022-11-02 15:21:39,880,320,-421,0,0,0,14,70,75,32,34.08,1018.18,1,0
2022-11-02 15:21:39,880,320,-421,0,0,0,14,70,75,32,34.08,1018.18,1,0
2022-11-02 15:21:39,880,320,-421,0,0,0,14,70,75,32,34.08,1018.18,1,0
2022-11-02 15:21:39,880,320,-421,0,0,0,14,70,75,32,34.08,1018.18,1,0
2022-11-02 15:21:39,880,320,-421,0,0,0,14,70,75,32,34.08,1018.18,1,0
2022-11-02 15:21:39,884,318,-425,0,0,0,15,73,68,32,34.08,1018.18,1,0
2022-11-02 15:21:39,884,318,-425,0,0,0,15,73,68,32,34.08,1018.18,1,0
2022-11-02 15:21:39,884,318,-425,0,0,0,15,73,68,32,34.08,1018.18,1,0
2022-11-02 15:21:39,884,318,-425,0,0,0,15,73,68,32,34.08,1018.18,1,0
2022-11-02 15:21:39,884,318,-425,0,0,0,15,73,68,32,34.08,1018.18,1,0
2022-11-02 15:21:39,872,318,-421,0,-1,0,17,73,75,32,34.08,1018.18,1,0
2022-11-02 15:21:39,872,318,-421,0,-1,0,17,73,75,32,34.08,1018.18,1,0
2022-11-02 15:21:39,872,318,-421,0,-1,0,17,73,75,32,34.08,1018.18,1,0
2022-11-02 15:21:39,872,318,-421,0,-1,0,17,73,75,32,34.08,1018.18,1,0
2022-11-02 15:21:39,872,318,-421,0,-1,0,17,73,75,32,34.08,1018.18,1,0
2022-11-02 15:21:40,876,320,-429,0,0,0,14,71,72,32,34.08,1018.18,1,0
2022-11-02 15:21:40,876,320,-429,0,0,0,14,71,72,32,34.08,1018.18,1,0
2022-11-02 15:21:40,876,320,-429,0,0,0,14,71,72,32,34.08,1018.18,1,0
2022-11-02 15:21:40,876,320,-429,0,0,0,14,71,72,32,34.08,1018.18,1,0
2022-11-02 15:21:40,876,320,-429,0,0,0,14,71,72,32,34.08,1018.18,1,0
2022-11-02 15:21:40,880,322,-425,-1,-1,0,18,73,72,32,34.08,1018.18,1,0
2022-11-02 15:21:40,880,322,-425,-1,-1,0,18,73,72,32,34.08,1018.18,1,0
2022-11-02 15:21:40,880,322,-425,-1,-1,0,18,73,72,32,34.08,1018.18,1,0
2022-11-02 15:21:40,880,322,-425,-1,-1,0,18,73,72,32,34.08,1018.18,1,0
2022-11-02 15:21:40,880,322,-425,-1,-1,0,18,73,72,32,34.08,1018.18,1,0
2022-11-02 15:21:40,874,327,-435,0,0,0,17,71,73,32,34.08,1018.18,1,0
2022-11-02 15:21:40,874,327,-435,0,0,0,17,71,73,32,34.08,1018.18,1,0
2022-11-02 15:21:40,874,327,-435,0,0,0,17,71,73,32,34.08,1018.18,1,0
2022-11-02 15:21:40,874,327,-435,0,0,0,17,71,73,32,34.08,1018.18,1,0
2022-11-02 15:21:40,874,327,-435,0,0,0,17,71,73,32,34.08,1018.18,1,0
2022-11-02 15:21:40,870,327,-437,0,-2,0,16,71,76,32,34.08,1018.18,1,0
2022-11-02 15:21:40,870,327,-437,0,-2,0,16,71,76,32,34.08,1018.18,1,0
2022-11-02 15:21:40,870,327,-437,0,-2,0,16,71,76,32,34.08,1018.18,1,0
2022-11-02 15:21:40,870,327,-437,0,-2,0,16,71,76,32,34.08,1018.18,1,0
2022-11-02 15:21:40,870,327,-437,0,-2,0,16,71,76,32,34.08,1018.18,1,0
2022-11-02 15:21:40,880,314,-437,-1,0,0,13,73,75,32,34.08,1018.18,1,0
2022-11-02 15:21:40,880,314,-437,-1,0,0,13,73,75,32,34.08,1018.18,1,0
2022-11-02 15:21:40,880,314,-437,-1,0,0,13,73,75,32,34.08,1018.18,1,0
2022-11-02 15:21:40,880,314,-437,-1,0,0,13,73,75,32,34.08,1018.18,1,0
2022-11-02 15:21:40,880,314,-437,-1,0,0,13,73,75,32,34.08,1018.18,1,0
2022-11-02 15:21:40,866,327,-431,-1,-1,0,14,74,72,32,34.1,1018.17,1,0
2022-11-02 15:21:40,866,327,-431,-1,-1,0,14,74,72,32,34.1,1018.17,1,0
2022-11-02 15:21:40,866,327,-431,-1,-1,0,14,74,72,32,34.1,1018.17,1,0
2022-11-02 15:21:40,866,327,-431,-1,-1,0,14,74,72,32,34.1,1018.17,1,0
2022-11-02 15:21:40,866,327,-431,-1,-1,0,14,74,72,32,34.1,1018.17,1,0
2022-11-02 15:21:40,870,333,-429,0,0,0,15,72,74,32,34.1,1018.17,1,0
2022-11-02 15:21:40,870,333,-429,0,0,0,15,72,74,32,34.1,1018.17,1,0
2022-11-02 15:21:40,870,333,-429,0,0,0,15,72,74,32,34.1,1018.17,1,0
2022-11-02 15:21:40,870,333,-429,0,0,0,15,72,74,32,34.1,1018.17,1,0
2022-11-02 15:21:40,870,333,-429,0,0,0,15,72,74,32,34.1,1018.17,1,0
2022-11-02 15:21:40,878,320,-439,0,0,0,15,72,71,32,34.1,1018.17,1,0
2022-11-02 15:21:40,878,320,-439,0,0,0,15,72,71,32,34.1,1018.17,1,0
2022-11-02 15:21:40,878,320,-439,0,0,0,15,72,71,32,34.1,1018.17,1,0
2022-11-02 15:21:40,878,320,-439,0,0,0,15,72,71,32,34.1,1018.17,1,0
2022-11-02 15:21:40,878,320,-439,0,0,0,15,72,71,32,34.1,1018.17,1,0
2022-11-02 15:21:40,872,327,-439,0,0,0,18,72,73,32,34.1,1018.17,1,0
2022-11-02 15:21:40,872,327,-439,0,0,0,18,72,73,32,34.1,1018.17,1,0
2022-11-02 15:21:40,872,327,-439,0,0,0,18,72,73,32,34.1,1018.17,1,0
2022-11-02 15:21:40,872,327,-439,0,0,0,18,72,73,32,34.1,1018.17,1,0
2022-11-02 15:21:40,872,327,-439,0,0,0,18,72,73,32,34.1,1018.17,1,0
2022-11-02 15:21:40,868,320,-454,0,1,0,15,72,75,32,34.1,1018.17,1,0
2022-11-02 15:21:40,868,320,-454,0,1,0,15,72,75,32,34.1,1018.17,1,0
2022-11-02 15:21:40,868,320,-454,0,1,0,15,72,75,32,34.1,1018.17,1,0
2022-11-02 15:21:40,868,320,-454,0,1,0,15,72,75,32,34.1,1018.17,1,0
2022-11-02 15:21:40,868,320,-454,0,1,0,15,72,75,32,34.1,1018.17,1,0
2022-11-02 15:21:41,876,329,-433,1,2,0,16,73,72,32,34.1,1018.17,1,0
2022-11-02 15:21:41,876,329,-433,1,2,0,16,73,72,32,34.1,1018.17,1,0
2022-11-02 15:21:41,876,329,-433,1,2,0,16,73,72,32,34.1,1018.17,1,0
2022-11-02 15:21:41,876,329,-433,1,2,0,16,73,72,32,34.1,1018.17,1,0
2022-11-02 15:21:41,876,329,-433,1,2,0,16,73,72,32,34.1,1018.17,1,0
2022-11-02 15:21:41,878,320,-435,1,2,0,15,72,77,32,34.1,1018.17,1,0
2022-11-02 15:21:41,878,320,-435,1,2,0,15,72,77,32,34.1,1018.17,1,0
2022-11-02 15:21:41,878,320,-435,1,2,0,15,72,77,32,34.1,1018.17,1,0
2022-11-02 15:21:41,878,320,-435,1,2,0,15,72,77,32,34.1,1018.17,1,0
2022-11-02 15:21:41,878,320,-435,1,2,0,15,72,77,32,34.1,1018.17,1,0
2022-11-02 15:21:41,882,316,-431,1,2,0,17,73,72,32,34.1,1018.17,1,0
2022-11-02 15:21:41,882,316,-431,1,2,0,17,73,72,32,34.1,1018.17,1,0
2022-11-02 15:21:41,882,316,-431,1,2,0,17,73,72,32,34.1,1018.17,1,0
2022-11-02 15:21:41,882,316,-431,1,2,0,17,73,72,32,34.1,1018.17,1,0
2022-11-02 15:21:41,882,316,-431,1,2,0,17,73,72,32,34.1,1018.17,1,0
2022-11-02 15:21:41,878,318,-437,0,2,0,17,72,77,32,34.1,1018.17,1,0
2022-11-02 15:21:41,878,318,-437,0,2,0,17,72,77,32,34.1,1018.17,1,0
2022-11-02 15:21:41,878,318,-437,0,2,0,17,72,77,32,34.1,1018.17,1,0
2022-11-02 15:21:41,878,318,-437,0,2,0,17,72,77,32,34.1,1018.17,1,0
2022-11-02 15:21:41,878,318,-437,0,2,0,17,72,77,32,34.1,1018.17,1,0
2022-11-02 15:21:41,882,324,-437,0,2,0,15,73,73,32,34.1,1018.17,1,0
2022-11-02 15:21:41,882,324,-437,0,2,0,15,73,73,32,34.1,1018.17,1,0
2022-11-02 15:21:41,882,324,-437,0,2,0,15,73,73,32,34.1,1018.17,1,0
2022-11-02 15:21:41,882,324,-437,0,2,0,15,73,73,32,34.1,1018.17,1,0
2022-11-02 15:21:41,882,324,-437,0,2,0,15,73,73,32,34.1,1018.17,1,0
2022-11-02 15:21:41,894,310,-427,0,0,0,14,73,72,32,34.08,1018.14,1,0
2022-11-02 15:21:41,894,310,-427,0,0,0,14,73,72,32,34.08,1018.14,1,0
2022-11-02 15:21:41,894,310,-427,0,0,0,14,73,72,32,34.08,1018.14,1,0
2022-11-02 15:21:41,894,310,-427,0,0,0,14,73,72,32,34.08,1018.14,1,0
2022-11-02 15:21:41,894,310,-427,0,0,0,14,73,72,32,34.08,1018.14,1,0
2022-11-02 15:21:41,878,320,-439,0,0,0,14,74,73,32,34.08,1018.14,1,0
2022-11-02 15:21:41,878,320,-439,0,0,0,14,74,73,32,34.08,1018.14,1,0
2022-11-02 15:21:41,878,320,-439,0,0,0,14,74,73,32,34.08,1018.14,1,0
2022-11-02 15:21:41,878,320,-439,0,0,0,14,74,73,32,34.08,1018.14,1,0
2022-11-02 15:21:41,878,320,-439,0,0,0,14,74,73,32,34.08,1018.14,1,0
2022-11-02 15:21:41,882,320,-417,0,0,0,15,74,76,32,34.08,1018.14,1,0
2022-11-02 15:21:41,882,320,-417,0,0,0,15,74,76,32,34.08,1018.14,1,0
2022-11-02 15:21:41,882,320,-417,0,0,0,15,74,76,32,34.08,1018.14,1,0
2022-11-02 15:21:41,882,320,-417,0,0,0,15,74,76,32,34.08,1018.14,1,0
2022-11-02 15:21:41,882,320,-417,0,0,0,15,74,76,32,34.08,1018.14,1,0
2022-11-02 15:21:41,880,308,-441,0,0,0,16,71,77,32,34.08,1018.14,1,0
2022-11-02 15:21:41,880,308,-441,0,0,0,16,71,77,32,34.08,1018.14,1,0
2022-11-02 15:21:41,880,308,-441,0,0,0,16,71,77,32,34.08,1018.14,1,0
2022-11-02 15:21:41,880,308,-441,0,0,0,16,71,77,32,34.08,1018.14,1,0
2022-11-02 15:21:41,880,308,-441,0,0,0,16,71,77,32,34.08,1018.14,1,0
2022-11-02 15:21:41,880,320,-417,0,0,0,18,72,73,32,34.08,1018.14,1,0
2022-11-02 15:21:41,880,320,-417,0,0,0,18,72,73,32,34.08,1018.14,1,0
2022-11-02 15:21:41,880,320,-417,0,0,0,18,72,73,32,34.08,1018.14,1,0
2022-11-02 15:21:41,880,320,-417,0,0,0,18,72,73,32,34.08,1018.14,1,0
2022-11-02 15:21:41,880,320,-417,0,0,0,18,72,73,32,34.08,1018.14,1,0
2022-11-02 15:21:42,868,322,-443,0,0,0,17,73,74,32,34.08,1018.14,1,0
2022-11-02 15:21:42,868,322,-443,0,0,0,17,73,74,32,34.08,1018.14,1,0
2022-11-02 15:21:42,868,322,-443,0,0,0,17,73,74,32,34.08,1018.14,1,0
2022-11-02 15:21:42,868,322,-443,0,0,0,17,73,74,32,34.08,1018.14,1,0
2022-11-02 15:21:42,868,322,-443,0,0,0,17,73,74,32,34.08,1018.14,1,0
2022-11-02 15:21:42,874,322,-433,0,0,0,16,72,73,32,34.08,1018.14,1,0
2022-11-02 15:21:42,874,322,-433,0,0,0,16,72,73,32,34.08,1018.14,1,0
2022-11-02 15:21:42,874,322,-433,0,0,0,16,72,73,32,34.08,1018.14,1,0
2022-11-02 15:21:42,874,322,-433,0,0,0,16,72,73,32,34.08,1018.14,1,0
2022-11-02 15:21:42,874,322,-433,0,0,0,16,72,73,32,34.08,1018.14,1,0
2022-11-02 15:21:42,882,314,-445,0,-1,0,17,73,72,32,34.08,1018.14,1,0
2022-11-02 15:21:42,882,314,-445,0,-1,0,17,73,72,32,34.08,1018.14,1,0
2022-11-02 15:21:42,882,314,-445,0,-1,0,17,73,72,32,34.08,1018.14,1,0
2022-11-02 15:21:42,882,314,-445,0,-1,0,17,73,72,32,34.08,1018.14,1,0
2022-11-02 15:21:42,882,314,-445,0,-1,0,17,73,72,32,34.08,1018.14,1,0
2022-11-02 15:21:42,872,316,-435,0,0,0,18,75,73,32,34.08,1018.14,1,0
2022-11-02 15:21:42,872,316,-435,0,0,0,18,75,73,32,34.08,1018.14,1,0
2022-11-02 15:21:42,872,316,-435,0,0,0,18,75,73,32,34.08,1018.14,1,0
2022-11-02 15:21:42,872,316,-435,0,0,0,18,75,73,32,34.08,1018.14,1,0
2022-11-02 15:21:42,872,316,-435,0,0,0,18,75,73,32,34.08,1018.14,1,0
2022-11-02 15:21:42,880,318,-431,0,0,0,16,72,75,32,34.08,1018.14,1,0
2022-11-02 15:21:42,880,318,-431,0,0,0,16,72,75,32,34.08,1018.14,1,0
2022-11-02 15:21:42,880,318,-431,0,0,0,16,72,75,32,34.08,1018.14,1,0
2022-11-02 15:21:42,880,318,-431,0,0,0,16,72,75,32,34.08,1018.14,1,0
2022-11-02 15:21:42,880,318,-431,0,0,0,16,72,75,32,34.08,1018.14,1,0
2022-11-02 15:21:42,870,320,-435,0,0,0,14,74,73,32,34.09,1018.12,1,0
2022-11-02 15:21:42,870,320,-435,0,0,0,14,74,73,32,34.09,1018.12,1,0
2022-11-02 15:21:42,870,320,-435,0,0,0,14,74,73,32,34.09,1018.12,1,0
2022-11-02 15:21:42,870,320,-435,0,0,0,14,74,73,32,34.09,1018.12,1,0
2022-11-02 15:21:42,870,320,-435,0,0,0,14,74,73,32,34.09,1018.12,1,0
2022-11-02 15:21:42,880,322,-427,0,0,0,17,73,75,32,34.09,1018.12,1,0
2022-11-02 15:21:42,880,322,-427,0,0,0,17,73,75,32,34.09,1018.12,1,0
2022-11-02 15:21:42,880,322,-427,0,0,0,17,73,75,32,34.09,1018.12,1,0
2022-11-02 15:21:42,880,322,-427,0,0,0,17,73,75,32,34.09,1018.12,1,0
2022-11-02 15:21:42,880,322,-427,0,0,0,17,73,75,32,34.09,1018.12,1,0
2022-11-02 15:21:42,872,331,-443,1,0,0,14,72,73,32,34.09,1018.12,1,0
2022-11-02 15:21:42,872,331,-443,1,0,0,14,72,73,32,34.09,1018.12,1,0
2022-11-02 15:21:42,872,331,-443,1,0,0,14,72,73,32,34.09,1018.12,1,0
2022-11-02 15:21:42,872,331,-443,1,0,0,14,72,73,32,34.09,1018.12,1,0
2022-11-02 15:21:42,872,331,-443,1,0,0,14,72,73,32,34.09,1018.12,1,0
2022-11-02 15:21:42,876,322,-433,0,1,0,18,72,73,32,34.09,1018.12,1,0
2022-11-02 15:21:42,876,322,-433,0,1,0,18,72,73,32,34.09,1018.12,1,0
2022-11-02 15:21:42,876,322,-433,0,1,0,18,72,73,32,34.09,1018.12,1,0
2022-11-02 15:21:42,876,322,-433,0,1,0,18,72,73,32,34.09,1018.12,1,0
2022-11-02 15:21:42,876,322,-433,0,1,0,18,72,73,32,34.09,1018.12,1,0
2022-11-02 15:21:42,884,324,-431,1,2,0,17,76,76,32,34.09,1018.12,1,0
2022-11-02 15:21:42,884,324,-431,1,2,0,17,76,76,32,34.09,1018.12,1,0
2022-11-02 15:21:42,884,324,-431,1,2,0,17,76,76,32,34.09,1018.12,1,0
2022-11-02 15:21:42,884,324,-431,1,2,0,17,76,76,32,34.09,1018.12,1,0
2022-11-02 15:21:42,884,324,-431,1,2,0,17,76,76,32,34.09,1018.12,1,0
2022-11-02 15:21:43,876,322,-435,2,1,0,14,71,75,32,34.09,1018.12,1,0
2022-11-02 15:21:43,876,322,-435,2,1,0,14,71,75,32,34.09,1018.12,1,0
2022-11-02 15:21:43,876,322,-435,2,1,0,14,71,75,32,34.09,1018.12,1,0
2022-11-02 15:21:43,876,322,-435,2,1,0,14,71,75,32,34.09,1018.12,1,0
2022-11-02 15:21:43,876,322,-435,2,1,0,14,71,75,32,34.09,1018.12,1,0
2022-11-02 15:21:43,878,320,-423,0,2,0,16,74,71,32,34.09,1018.12,1,0
2022-11-02 15:21:43,878,320,-423,0,2,0,16,74,71,32,34.09,1018.12,1,0
2022-11-02 15:21:43,878,320,-423,0,2,0,16,74,71,32,34.09,1018.12,1,0
2022-11-02 15:21:43,878,320,-423,0,2,0,16,74,71,32,34.09,1018.12,1,0
2022-11-02 15:21:43,878,320,-423,0,2,0,16,74,71,32,34.09,1018.12,1,0
2022-11-02 15:21:43,886,320,-427,0,3,0,16,73,70,32,34.09,1018.12,1,0
2022-11-02 15:21:43,886,320,-427,0,3,0,16,73,70,32,34.09,1018.12,1,0
2022-11-02 15:21:43,886,320,-427,0,3,0,16,73,70,32,34.09,1018.12,1,0
2022-11-02 15:21:43,886,320,-427,0,3,0,16,73,70,32,34.09,1018.12,1,0
2022-11-02 15:21:43,886,320,-427,0,3,0,16,73,70,32,34.09,1018.12,1,0
2022-11-02 15:21:43,888,316,-425,0,2,0,14,74,72,32,34.09,1018.12,1,0
2022-11-02 15:21:43,888,316,-425,0,2,0,14,74,72,32,34.09,1018.12,1,0
2022-11-02 15:21:43,888,316,-425,0,2,0,14,74,72,32,34.09,1018.12,1,0
2022-11-02 15:21:43,888,316,-425,0,2,0,14,74,72,32,34.09,1018.12,1,0
2022-11-02 15:21:43,888,316,-425,0,2,0,14,74,72,32,34.09,1018.12,1,0
2022-11-02 15:21:43,884,320,-419,-1,2,0,16,71,70,32,34.09,1018.12,1,0
2022-11-02 15:21:43,884,320,-419,-1,2,0,16,71,70,32,34.09,1018.12,1,0
2022-11-02 15:21:43,884,320,-419,-1,2,0,16,71,70,32,34.09,1018.12,1,0
2022-11-02 15:21:43,884,320,-419,-1,2,0,16,71,70,32,34.09,1018.12,1,0
2022-11-02 15:21:43,884,320,-419,-1,2,0,16,71,70,32,34.09,1018.12,1,0
2022-11-02 15:21:43,895,316,-407,-1,1,0,15,77,75,32,34.09,1018.12,1,0
2022-11-02 15:21:43,895,316,-407,-1,1,0,15,77,75,32,34.09,1018.12,1,0
2022-11-02 15:21:43,895,316,-407,-1,1,0,15,77,75,32,34.09,1018.12,1,0
2022-11-02 15:21:43,895,316,-407,-1,1,0,15,77,75,32,34.09,1018.12,1,0
2022-11-02 15:21:43,895,316,-407,-1,1,0,15,77,75,32,34.09,1018.12,1,0
2022-11-02 15:21:43,888,310,-413,0,0,0,15,73,73,32,34.09,1018.12,1,0
2022-11-02 15:21:43,888,310,-413,0,0,0,15,73,73,32,34.09,1018.12,1,0
2022-11-02 15:21:43,888,310,-413,0,0,0,15,73,73,32,34.09,1018.12,1,0
2022-11-02 15:21:43,888,310,-413,0,0,0,15,73,73,32,34.09,1018.12,1,0
2022-11-02 15:21:43,888,310,-413,0,0,0,15,73,73,32,34.09,1018.12,1,0
2022-11-02 15:21:43,884,316,-421,-1,-1,0,17,71,72,32,34.09,1018.12,1,0
2022-11-02 15:21:43,884,316,-421,-1,-1,0,17,71,72,32,34.09,1018.12,1,0
2022-11-02 15:21:43,884,316,-421,-1,-1,0,17,71,72,32,34.09,1018.12,1,0
2022-11-02 15:21:43,884,316,-421,-1,-1,0,17,71,72,32,34.09,1018.12,1,0
2022-11-02 15:21:43,884,316,-421,-1,-1,0,17,71,72,32,34.09,1018.12,1,0
2022-11-02 15:21:43,880,322,-427,0,0,0,16,71,71,32,34.09,1018.12,1,0
2022-11-02 15:21:43,880,322,-427,0,0,0,16,71,71,32,34.09,1018.12,1,0
2022-11-02 15:21:43,880,322,-427,0,0,0,16,71,71,32,34.09,1018.12,1,0
2022-11-02 15:21:43,880,322,-427,0,0,0,16,71,71,32,34.09,1018.12,1,0
2022-11-02 15:21:43,880,322,-427,0,0,0,16,71,71,32,34.09,1018.12,1,0
2022-11-02 15:21:43,880,316,-423,0,-1,0,16,72,73,32,34.09,1018.12,1,0
2022-11-02 15:21:43,880,316,-423,0,-1,0,16,72,73,32,34.09,1018.12,1,0
2022-11-02 15:21:43,880,316,-423,0,-1,0,16,72,73,32,34.09,1018.12,1,0
2022-11-02 15:21:43,880,316,-423,0,-1,0,16,72,73,32,34.09,1018.12,1,0
2022-11-02 15:21:43,880,316,-423,0,-1,0,16,72,73,32,34.09,1018.12,1,0
2022-11-02 15:21:44,888,320,-423,0,0,0,17,73,75,32,34.09,1018.12,1,0
2022-11-02 15:21:44,888,320,-423,0,0,0,17,73,75,32,34.09,1018.12,1,0
2022-11-02 15:21:44,888,320,-423,0,0,0,17,73,75,32,34.09,1018.12,1,0
2022-11-02 15:21:44,888,320,-423,0,0,0,17,73,75,32,34.09,1018.12,1,0
2022-11-02 15:21:44,888,320,-423,0,0,0,17,73,75,32,34.09,1018.12,1,0
2022-11-02 15:21:44,876,320,-433,0,0,0,16,73,78,32,34.09,1018.12,1,0
2022-11-02 15:21:44,876,320,-433,0,0,0,16,73,78,32,34.09,1018.12,1,0
2022-11-02 15:21:44,876,320,-433,0,0,0,16,73,78,32,34.09,1018.12,1,0
2022-11-02 15:21:44,876,320,-433,0,0,0,16,73,78,32,34.09,1018.12,1,0
2022-11-02 15:21:44,876,320,-433,0,0,0,16,73,78,32,34.09,1018.12,1,0
2022-11-02 15:21:44,886,320,-415,0,0,0,17,71,71,32,34.09,1018.12,1,0
2022-11-02 15:21:44,886,320,-415,0,0,0,17,71,71,32,34.09,1018.12,1,0
2022-11-02 15:21:44,886,320,-415,0,0,0,17,71,71,32,34.09,1018.12,1,0
2022-11-02 15:21:44,886,320,-415,0,0,0,17,71,71,32,34.09,1018.12,1,0
2022-11-02 15:21:44,886,320,-415,0,0,0,17,71,71,32,34.09,1018.12,1,0
2022-11-02 15:21:44,894,316,-417,0,0,0,14,74,72,32,34.09,1018.12,1,0
2022-11-02 15:21:44,894,316,-417,0,0,0,14,74,72,32,34.09,1018.12,1,0
2022-11-02 15:21:44,894,316,-417,0,0,0,14,74,72,32,34.09,1018.12,1,0
2022-11-02 15:21:44,894,316,-417,0,0,0,14,74,72,32,34.09,1018.12,1,0
2022-11-02 15:21:44,894,316,-417,0,0,0,14,74,72,32,34.09,1018.12,1,0
2022-11-02 15:21:44,864,318,-450,-1,0,0,16,71,73,32,34.09,1018.12,1,0
2022-11-02 15:21:44,864,318,-450,-1,0,0,16,71,73,32,34.09,1018.12,1,0
2022-11-02 15:21:44,864,318,-450,-1,0,0,16,71,73,32,34.09,1018.12,1,0
2022-11-02 15:21:44,864,318,-450,-1,0,0,16,71,73,32,34.09,1018.12,1,0
2022-11-02 15:21:44,864,318,-450,-1,0,0,16,71,73,32,34.09,1018.12,1,0
2022-11-02 15:21:44,892,343,-413,0,0,0,18,71,75,32,34.09,1018.14,1,0
2022-11-02 15:21:44,892,343,-413,0,0,0,18,71,75,32,34.09,1018.14,1,0
2022-11-02 15:21:44,892,343,-413,0,0,0,18,71,75,32,34.09,1018.14,1,0
2022-11-02 15:21:44,892,343,-413,0,0,0,18,71,75,32,34.09,1018.14,1,0
2022-11-02 15:21:44,892,343,-413,0,0,0,18,71,75,32,34.09,1018.14,1,0
2022-11-02 15:21:44,886,314,-415,0,0,0,16,73,75,32,34.09,1018.14,1,0
2022-11-02 15:21:44,886,314,-415,0,0,0,16,73,75,32,34.09,1018.14,1,0
2022-11-02 15:21:44,886,314,-415,0,0,0,16,73,75,32,34.09,1018.14,1,0
2022-11-02 15:21:44,886,314,-415,0,0,0,16,73,75,32,34.09,1018.14,1,0
2022-11-02 15:21:44,886,314,-415,0,0,0,16,73,75,32,34.09,1018.14,1,0
2022-11-02 15:21:44,886,327,-425,-1,0,0,16,71,73,32,34.09,1018.14,1,0
2022-11-02 15:21:44,886,327,-425,-1,0,0,16,71,73,32,34.09,1018.14,1,0
2022-11-02 15:21:44,886,327,-425,-1,0,0,16,71,73,32,34.09,1018.14,1,0
2022-11-02 15:21:44,886,327,-425,-1,0,0,16,71,73,32,34.09,1018.14,1,0
2022-11-02 15:21:44,886,327,-425,-1,0,0,16,71,73,32,34.09,1018.14,1,0
2022-11-02 15:21:44,878,329,-413,0,0,0,14,74,71,32,34.09,1018.14,1,0
2022-11-02 15:21:44,878,329,-413,0,0,0,14,74,71,32,34.09,1018.14,1,0
2022-11-02 15:21:44,878,329,-413,0,0,0,14,74,71,32,34.09,1018.14,1,0
2022-11-02 15:21:44,878,329,-413,0,0,0,14,74,71,32,34.09,1018.14,1,0
2022-11-02 15:21:44,878,329,-413,0,0,0,14,74,71,32,34.09,1018.14,1,0
2022-11-02 15:21:44,878,325,-439,0,0,0,16,72,73,32,34.09,1018.14,1,0
2022-11-02 15:21:44,878,325,-439,0,0,0,16,72,73,32,34.09,1018.14,1,0
2022-11-02 15:21:44,878,325,-439,0,0,0,16,72,73,32,34.09,1018.14,1,0
2022-11-02 15:21:44,878,325,-439,0,0,0,16,72,73,32,34.09,1018.14,1,0
2022-11-02 15:21:44,878,325,-439,0,0,0,16,72,73,32,34.09,1018.14,1,0
2022-11-02 15:21:45,886,324,-427,0,0,0,15,74,74,32,34.09,1018.14,1,0
2022-11-02 15:21:45,886,324,-427,0,0,0,15,74,74,32,34.09,1018.14,1,0
2022-11-02 15:21:45,886,324,-427,0,0,0,15,74,74,32,34.09,1018.14,1,0
2022-11-02 15:21:45,886,324,-427,0,0,0,15,74,74,32,34.09,1018.14,1,0
2022-11-02 15:21:45,886,324,-427,0,0,0,15,74,74,32,34.09,1018.14,1,0
2022-11-02 15:21:45,880,329,-409,0,0,0,18,74,72,32,34.09,1018.14,1,0
2022-11-02 15:21:45,880,329,-409,0,0,0,18,74,72,32,34.09,1018.14,1,0
2022-11-02 15:21:45,880,329,-409,0,0,0,18,74,72,32,34.09,1018.14,1,0
2022-11-02 15:21:45,880,329,-409,0,0,0,18,74,72,32,34.09,1018.14,1,0
2022-11-02 15:21:45,880,329,-409,0,0,0,18,74,72,32,34.09,1018.14,1,0
2022-11-02 15:21:45,876,320,-435,0,0,0,18,75,69,32,34.09,1018.14,1,0
2022-11-02 15:21:45,876,320,-435,0,0,0,18,75,69,32,34.09,1018.14,1,0
2022-11-02 15:21:45,876,320,-435,0,0,0,18,75,69,32,34.09,1018.14,1,0
2022-11-02 15:21:45,876,320,-435,0,0,0,18,75,69,32,34.09,1018.14,1,0
2022-11-02 15:21:45,876,320,-435,0,0,0,18,75,69,32,34.09,1018.14,1,0
2022-11-02 15:21:45,882,325,-423,-1,-1,0,17,73,75,32,34.09,1018.14,1,0
2022-11-02 15:21:45,882,325,-423,-1,-1,0,17,73,75,32,34.09,1018.14,1,0
2022-11-02 15:21:45,882,325,-423,-1,-1,0,17,73,75,32,34.09,1018.14,1,0
2022-11-02 15:21:45,882,325,-423,-1,-1,0,17,73,75,32,34.09,1018.14,1,0
2022-11-02 15:21:45,882,325,-423,-1,-1,0,17,73,75,32,34.09,1018.14,1,0
2022-11-02 15:21:45,878,331,-435,0,0,0,15,73,72,32,34.09,1018.14,1,0
2022-11-02 15:21:45,878,331,-435,0,0,0,15,73,72,32,34.09,1018.14,1,0
2022-11-02 15:21:45,878,331,-435,0,0,0,15,73,72,32,34.09,1018.14,1,0
2022-11-02 15:21:45,878,331,-435,0,0,0,15,73,72,32,34.09,1018.14,1,0
2022-11-02 15:21:45,878,331,-435,0,0,0,15,73,72,32,34.09,1018.14,1,0
2022-11-02 15:21:45,874,316,-437,0,0,0,15,73,72,32,34.09,1018.14,1,0
2022-11-02 15:21:45,874,316,-437,0,0,0,15,73,72,32,34.09,1018.14,1,0
2022-11-02 15:21:45,874,316,-437,0,0,0,15,73,72,32,34.09,1018.14,1,0
2022-11-02 15:21:45,874,316,-437,0,0,0,15,73,72,32,34.09,1018.14,1,0
2022-11-02 15:21:45,874,316,-437,0,0,0,15,73,72,32,34.09,1018.14,1,0
2022-11-02 15:21:45,880,324,-435,0,1,0,17,71,70,32,34.09,1018.15,1,0
2022-11-02 15:21:45,880,324,-435,0,1,0,17,71,70,32,34.09,1018.15,1,0
2022-11-02 15:21:45,880,324,-435,0,1,0,17,71,70,32,34.09,1018.15,1,0
2022-11-02 15:21:45,880,324,-435,0,1,0,17,71,70,32,34.09,1018.15,1,0
2022-11-02 15:21:45,880,324,-435,0,1,0,17,71,70,32,34.09,1018.15,1,0
2022-11-02 15:21:45,880,325,-425,0,1,0,17,73,75,32,34.09,1018.15,1,0
2022-11-02 15:21:45,880,325,-425,0,1,0,17,73,75,32,34.09,1018.15,1,0
2022-11-02 15:21:45,880,325,-425,0,1,0,17,73,75,32,34.09,1018.15,1,0
2022-11-02 15:21:45,880,325,-425,0,1,0,17,73,75,32,34.09,1018.15,1,0
2022-11-02 15:21:45,880,325,-425,0,1,0,17,73,75,32,34.09,1018.15,1,0
2022-11-02 15:21:45,880,322,-429,0,2,0,17,72,74,32,34.09,1018.15,1,0
2022-11-02 15:21:45,880,322,-429,0,2,0,17,72,74,32,34.09,1018.15,1,0
2022-11-02 15:21:45,880,322,-429,0,2,0,17,72,74,32,34.09,1018.15,1,0
2022-11-02 15:21:45,880,322,-429,0,2,0,17,72,74,32,34.09,1018.15,1,0
2022-11-02 15:21:45,880,322,-429,0,2,0,17,72,74,32,34.09,1018.15,1,0
2022-11-02 15:21:45,882,325,-423,1,2,0,17,73,72,32,34.09,1018.15,1,0
2022-11-02 15:21:45,882,325,-423,1,2,0,17,73,72,32,34.09,1018.15,1,0
2022-11-02 15:21:45,882,325,-423,1,2,0,17,73,72,32,34.09,1018.15,1,0
2022-11-02 15:21:45,882,325,-423,1,2,0,17,73,72,32,34.09,1018.15,1,0
2022-11-02 15:21:45,882,325,-423,1,2,0,17,73,72,32,34.09,1018.15,1,0
2022-11-02 15:21:46,890,324,-407,0,2,0,15,75,68,32,34.09,1018.15,1,0
2022-11-02 15:21:46,890,324,-407,0,2,0,15,75,68,32,34.09,1018.15,1,0
2022-11-02 15:21:46,890,324,-407,0,2,0,15,75,68,32,34.09,1018.15,1,0
2022-11-02 15:21:46,890,324,-407,0,2,0,15,75,68,32,34.09,1018.15,1,0
2022-11-02 15:21:46,890,324,-407,0,2,0,15,75,68,32,34.09,1018.15,1,0
2022-11-02 15:21:46,888,320,-409,0,2,0,16,71,71,32,34.09,1018.15,1,0
2022-11-02 15:21:46,888,320,-409,0,2,0,16,71,71,32,34.09,1018.15,1,0
2022-11-02 15:21:46,888,320,-409,0,2,0,16,71,71,32,34.09,1018.15,1,0
2022-11-02 15:21:46,888,320,-409,0,2,0,16,71,71,32,34.09,1018.15,1,0
2022-11-02 15:21:46,888,320,-409,0,2,0,16,71,71,32,34.09,1018.15,1,0
2022-11-02 15:21:46,899,318,-421,1,1,0,13,73,71,32,34.09,1018.15,1,0
2022-11-02 15:21:46,899,318,-421,1,1,0,13,73,71,32,34.09,1018.15,1,0
2022-11-02 15:21:46,899,318,-421,1,1,0,13,73,71,32,34.09,1018.15,1,0
2022-11-02 15:21:46,899,318,-421,1,1,0,13,73,71,32,34.09,1018.15,1,0
2022-11-02 15:21:46,899,318,-421,1,1,0,13,73,71,32,34.09,1018.15,1,0
2022-11-02 15:21:46,888,318,-406,-1,1,0,15,75,73,32,34.09,1018.15,1,0
2022-11-02 15:21:46,888,318,-406,-1,1,0,15,75,73,32,34.09,1018.15,1,0
2022-11-02 15:21:46,888,318,-406,-1,1,0,15,75,73,32,34.09,1018.15,1,0
2022-11-02 15:21:46,888,318,-406,-1,1,0,15,75,73,32,34.09,1018.15,1,0
2022-11-02 15:21:46,888,318,-406,-1,1,0,15,75,73,32,34.09,1018.15,1,0
2022-11-02 15:21:46,892,310,-409,0,0,0,16,75,72,32,34.09,1018.15,1,0
2022-11-02 15:21:46,892,310,-409,0,0,0,16,75,72,32,34.09,1018.15,1,0
2022-11-02 15:21:46,892,310,-409,0,0,0,16,75,72,32,34.09,1018.15,1,0
2022-11-02 15:21:46,892,310,-409,0,0,0,16,75,72,32,34.09,1018.15,1,0
2022-11-02 15:21:46,892,310,-409,0,0,0,16,75,72,32,34.09,1018.15,1,0
2022-11-02 15:21:46,888,310,-402,0,0,0,15,73,73,32,34.09,1018.15,1,0
2022-11-02 15:21:46,888,310,-402,0,0,0,15,73,73,32,34.09,1018.15,1,0
2022-11-02 15:21:46,888,310,-402,0,0,0,15,73,73,32,34.09,1018.15,1,0
2022-11-02 15:21:46,888,310,-402,0,0,0,15,73,73,32,34.09,1018.15,1,0
2022-11-02 15:21:46,888,310,-402,0,0,0,15,73,73,32,34.09,1018.15,1,0
2022-11-02 15:21:46,894,314,-409,0,0,0,14,76,76,32,34.11,1018.11,1,0
2022-11-02 15:21:46,894,314,-409,0,0,0,14,76,76,32,34.11,1018.11,1,0
2022-11-02 15:21:46,894,314,-409,0,0,0,14,76,76,32,34.11,1018.11,1,0
2022-11-02 15:21:46,894,314,-409,0,0,0,14,76,76,32,34.11,1018.11,1,0
2022-11-02 15:21:46,894,314,-409,0,0,0,14,76,76,32,34.11,1018.11,1,0
2022-11-02 15:21:46,882,324,-409,0,-1,0,14,73,75,32,34.11,1018.11,1,0
2022-11-02 15:21:46,882,324,-409,0,-1,0,14,73,75,32,34.11,1018.11,1,0
2022-11-02 15:21:46,882,324,-409,0,-1,0,14,73,75,32,34.11,1018.11,1,0
2022-11-02 15:21:46,882,324,-409,0,-1,0,14,73,75,32,34.11,1018.11,1,0
2022-11-02 15:21:46,882,324,-409,0,-1,0,14,73,75,32,34.11,1018.11,1,0
2022-11-02 15:21:46,884,327,-409,-1,-1,0,16,71,70,32,34.11,1018.11,1,0
2022-11-02 15:21:46,884,327,-409,-1,-1,0,16,71,70,32,34.11,1018.11,1,0
2022-11-02 15:21:46,884,327,-409,-1,-1,0,16,71,70,32,34.11,1018.11,1,0
2022-11-02 15:21:46,884,327,-409,-1,-1,0,16,71,70,32,34.11,1018.11,1,0
2022-11-02 15:21:46,884,327,-409,-1,-1,0,16,71,70,32,34.11,1018.11,1,0
2022-11-02 15:21:46,882,314,-427,0,0,0,18,71,74,32,34.11,1018.11,1,0
2022-11-02 15:21:46,882,314,-427,0,0,0,18,71,74,32,34.11,1018.11,1,0
2022-11-02 15:21:46,882,314,-427,0,0,0,18,71,74,32,34.11,1018.11,1,0
2022-11-02 15:21:46,882,314,-427,0,0,0,18,71,74,32,34.11,1018.11,1,0
2022-11-02 15:21:46,882,314,-427,0,0,0,18,71,74,32,34.11,1018.11,1,0
2022-11-02 15:21:47,878,320,-419,0,-1,-1,16,73,73,32,34.11,1018.11,1,0
2022-11-02 15:21:47,878,320,-419,0,-1,-1,16,73,73,32,34.11,1018.11,1,0
2022-11-02 15:21:47,878,320,-419,0,-1,-1,16,73,73,32,34.11,1018.11,1,0
2022-11-02 15:21:47,878,320,-419,0,-1,-1,16,73,73,32,34.11,1018.11,1,0
2022-11-02 15:21:47,878,320,-419,0,-1,-1,16,73,73,32,34.11,1018.11,1,0
2022-11-02 15:21:47,882,333,-423,0,-1,0,15,73,74,32,34.11,1018.11,1,0
2022-11-02 15:21:47,882,333,-423,0,-1,0,15,73,74,32,34.11,1018.11,1,0
2022-11-02 15:21:47,882,333,-423,0,-1,0,15,73,74,32,34.11,1018.11,1,0
2022-11-02 15:21:47,882,333,-423,0,-1,0,15,73,74,32,34.11,1018.11,1,0
2022-11-02 15:21:47,882,333,-423,0,-1,0,15,73,74,32,34.11,1018.11,1,0
2022-11-02 15:21:47,882,329,-419,0,0,0,15,74,72,32,34.11,1018.11,1,0
2022-11-02 15:21:47,882,329,-419,0,0,0,15,74,72,32,34.11,1018.11,1,0
2022-11-02 15:21:47,882,329,-419,0,0,0,15,74,72,32,34.11,1018.11,1,0
2022-11-02 15:21:47,882,329,-419,0,0,0,15,74,72,32,34.11,1018.11,1,0
2022-11-02 15:21:47,882,329,-419,0,0,0,15,74,72,32,34.11,1018.11,1,0
2022-11-02 15:21:47,874,329,-425,0,0,0,14,68,71,32,34.11,1018.11,1,0
2022-11-02 15:21:47,874,329,-425,0,0,0,14,68,71,32,34.11,1018.11,1,0
2022-11-02 15:21:47,874,329,-425,0,0,0,14,68,71,32,34.11,1018.11,1,0
2022-11-02 15:21:47,874,329,-425,0,0,0,14,68,71,32,34.11,1018.11,1,0
2022-11-02 15:21:47,874,329,-425,0,0,0,14,68,71,32,34.11,1018.11,1,0
2022-11-02 15:21:47,882,320,-427,0,0,0,14,73,72,32,34.11,1018.11,1,0
2022-11-02 15:21:47,882,320,-427,0,0,0,14,73,72,32,34.11,1018.11,1,0
2022-11-02 15:21:47,882,320,-427,0,0,0,14,73,72,32,34.11,1018.11,1,0
2022-11-02 15:21:47,882,320,-427,0,0,0,14,73,72,32,34.11,1018.11,1,0
2022-11-02 15:21:47,882,320,-427,0,0,0,14,73,72,32,34.11,1018.11,1,0
2022-11-02 15:21:47,878,318,-421,0,0,0,15,73,75,32,34.11,1018.11,1,0
2022-11-02 15:21:47,878,318,-421,0,0,0,15,73,75,32,34.11,1018.11,1,0
2022-11-02 15:21:47,878,318,-421,0,0,0,15,73,75,32,34.11,1018.11,1,0
2022-11-02 15:21:47,878,318,-421,0,0,0,15,73,75,32,34.11,1018.11,1,0
2022-11-02 15:21:47,878,318,-421,0,0,0,15,73,75,32,34.11,1018.11,1,0
2022-11-02 15:21:47,880,325,-417,0,0,0,18,72,73,32,34.11,1018.21,1,0
2022-11-02 15:21:47,880,325,-417,0,0,0,18,72,73,32,34.11,1018.21,1,0
2022-11-02 15:21:47,880,325,-417,0,0,0,18,72,73,32,34.11,1018.21,1,0
2022-11-02 15:21:47,880,325,-417,0,0,0,18,72,73,32,34.11,1018.21,1,0
2022-11-02 15:21:47,880,325,-417,0,0,0,18,72,73,32,34.11,1018.21,1,0
2022-11-02 15:21:47,874,320,-423,0,0,0,17,75,75,32,34.11,1018.21,1,0
2022-11-02 15:21:47,874,320,-423,0,0,0,17,75,75,32,34.11,1018.21,1,0
2022-11-02 15:21:47,874,320,-423,0,0,0,17,75,75,32,34.11,1018.21,1,0
2022-11-02 15:21:47,874,320,-423,0,0,0,17,75,75,32,34.11,1018.21,1,0
2022-11-02 15:21:47,874,320,-423,0,0,0,17,75,75,32,34.11,1018.21,1,0
2022-11-02 15:21:47,880,322,-417,-1,0,0,16,72,72,32,34.11,1018.21,1,0
2022-11-02 15:21:47,880,322,-417,-1,0,0,16,72,72,32,34.11,1018.21,1,0
2022-11-02 15:21:47,880,322,-417,-1,0,0,16,72,72,32,34.11,1018.21,1,0
2022-11-02 15:21:47,880,322,-417,-1,0,0,16,72,72,32,34.11,1018.21,1,0
2022-11-02 15:21:47,880,322,-417,-1,0,0,16,72,72,32,34.11,1018.21,1,0
2022-11-02 15:21:47,874,327,-435,0,0,0,15,73,76,32,34.11,1018.21,1,0
2022-11-02 15:21:47,874,327,-435,0,0,0,15,73,76,32,34.11,1018.21,1,0
2022-11-02 15:21:47,874,327,-435,0,0,0,15,73,76,32,34.11,1018.21,1,0
2022-11-02 15:21:47,874,327,-435,0,0,0,15,73,76,32,34.11,1018.21,1,0
2022-11-02 15:21:47,874,327,-435,0,0,0,15,73,76,32,34.11,1018.21,1,0
2022-11-02 15:21:48,876,325,-433,0,0,0,16,72,75,32,34.11,1018.21,1,0
2022-11-02 15:21:48,876,325,-433,0,0,0,16,72,75,32,34.11,1018.21,1,0
2022-11-02 15:21:48,876,325,-433,0,0,0,16,72,75,32,34.11,1018.21,1,0
2022-11-02 15:21:48,876,325,-433,0,0,0,16,72,75,32,34.11,1018.21,1,0
2022-11-02 15:21:48,876,325,-433,0,0,0,16,72,75,32,34.11,1018.21,1,0
2022-11-02 15:21:48,882,327,-423,0,0,0,13,74,70,32,34.11,1018.21,1,0
2022-11-02 15:21:48,882,327,-423,0,0,0,13,74,70,32,34.11,1018.21,1,0
2022-11-02 15:21:48,882,327,-423,0,0,0,13,74,70,32,34.11,1018.21,1,0
2022-11-02 15:21:48,882,327,-423,0,0,0,13,74,70,32,34.11,1018.21,1,0
2022-11-02 15:21:48,882,327,-423,0,0,0,13,74,70,32,34.11,1018.21,1,0
2022-11-02 15:21:48,882,325,-423,0,1,0,16,74,72,32,34.11,1018.21,1,0
2022-11-02 15:21:48,882,325,-423,0,1,0,16,74,72,32,34.11,1018.21,1,0
2022-11-02 15:21:48,882,325,-423,0,1,0,16,74,72,32,34.11,1018.21,1,0
2022-11-02 15:21:48,882,325,-423,0,1,0,16,74,72,32,34.11,1018.21,1,0
2022-11-02 15:21:48,882,325,-423,0,1,0,16,74,72,32,34.11,1018.21,1,0
2022-11-02 15:21:48,884,316,-429,0,1,0,17,73,75,32,34.11,1018.21,1,0
2022-11-02 15:21:48,884,316,-429,0,1,0,17,73,75,32,34.11,1018.21,1,0
2022-11-02 15:21:48,884,316,-429,0,1,0,17,73,75,32,34.11,1018.21,1,0
2022-11-02 15:21:48,884,316,-429,0,1,0,17,73,75,32,34.11,1018.21,1,0
2022-11-02 15:21:48,884,316,-429,0,1,0,17,73,75,32,34.11,1018.21,1,0
2022-11-02 15:21:48,884,329,-406,0,1,0,17,74,73,32,34.11,1018.21,1,0
2022-11-02 15:21:48,884,329,-406,0,1,0,17,74,73,32,34.11,1018.21,1,0
2022-11-02 15:21:48,884,329,-406,0,1,0,17,74,73,32,34.11,1018.21,1,0
2022-11-02 15:21:48,884,329,-406,0,1,0,17,74,73,32,34.11,1018.21,1,0
2022-11-02 15:21:48,884,329,-406,0,1,0,17,74,73,32,34.11,1018.21,1,0
2022-11-02 15:21:48,886,324,-419,0,1,0,15,73,74,32,34.11,1018.21,1,0
2022-11-02 15:21:48,886,324,-419,0,1,0,15,73,74,32,34.11,1018.21,1,0
2022-11-02 15:21:48,886,324,-419,0,1,0,15,73,74,32,34.11,1018.21,1,0
2022-11-02 15:21:48,886,324,-419,0,1,0,15,73,74,32,34.11,1018.21,1,0
2022-11-02 15:21:48,886,324,-419,0,1,0,15,73,74,32,34.11,1018.21,1,0
2022-11-02 15:21:48,882,329,-417,-1,1,0,16,73,78,32,34.1,1018.16,1,0
2022-11-02 15:21:48,882,329,-417,-1,1,0,16,73,78,32,34.1,1018.16,1,0
2022-11-02 15:21:48,882,329,-417,-1,1,0,16,73,78,32,34.1,1018.16,1,0
2022-11-02 15:21:48,882,329,-417,-1,1,0,16,73,78,32,34.1,1018.16,1,0
2022-11-02 15:21:48,882,329,-417,-1,1,0,16,73,78,32,34.1,1018.16,1,0
2022-11-02 15:21:48,890,320,-415,0,0,0,17,72,72,32,34.1,1018.16,1,0
2022-11-02 15:21:48,890,320,-415,0,0,0,17,72,72,32,34.1,1018.16,1,0
2022-11-02 15:21:48,890,320,-415,0,0,0,17,72,72,32,34.1,1018.16,1,0
2022-11-02 15:21:48,890,320,-415,0,0,0,17,72,72,32,34.1,1018.16,1,0
2022-11-02 15:21:48,890,320,-415,0,0,0,17,72,72,32,34.1,1018.16,1,0
2022-11-02 15:21:48,882,335,-413,-1,0,0,14,72,75,32,34.1,1018.16,1,0
2022-11-02 15:21:48,882,335,-413,-1,0,0,14,72,75,32,34.1,1018.16,1,0
2022-11-02 15:21:48,882,335,-413,-1,0,0,14,72,75,32,34.1,1018.16,1,0
2022-11-02 15:21:48,882,335,-413,-1,0,0,14,72,75,32,34.1,1018.16,1,0
2022-11-02 15:21:48,882,335,-413,-1,0,0,14,72,75,32,34.1,1018.16,1,0
2022-11-02 15:21:48,884,322,-413,0,0,0,17,70,72,32,34.1,1018.16,1,0
2022-11-02 15:21:48,884,322,-413,0,0,0,17,70,72,32,34.1,1018.16,1,0
2022-11-02 15:21:48,884,322,-413,0,0,0,17,70,72,32,34.1,1018.16,1,0
2022-11-02 15:21:48,884,322,-413,0,0,0,17,70,72,32,34.1,1018.16,1,0
2022-11-02 15:21:48,884,322,-413,0,0,0,17,70,72,32,34.1,1018.16,1,0
2022-11-02 15:21:49,880,327,-429,0,0,0,16,73,74,32,34.1,1018.16,1,0
2022-11-02 15:21:49,880,327,-429,0,0,0,16,73,74,32,34.1,1018.16,1,0
2022-11-02 15:21:49,880,327,-429,0,0,0,16,73,74,32,34.1,1018.16,1,0
2022-11-02 15:21:49,880,327,-429,0,0,0,16,73,74,32,34.1,1018.16,1,0
2022-11-02 15:21:49,880,327,-429,0,0,0,16,73,74,32,34.1,1018.16,1,0
2022-11-02 15:21:49,886,320,-423,0,0,0,14,75,72,32,34.1,1018.16,1,0
2022-11-02 15:21:49,886,320,-423,0,0,0,14,75,72,32,34.1,1018.16,1,0
2022-11-02 15:21:49,886,320,-423,0,0,0,14,75,72,32,34.1,1018.16,1,0
2022-11-02 15:21:49,886,320,-423,0,0,0,14,75,72,32,34.1,1018.16,1,0
2022-11-02 15:21:49,886,320,-423,0,0,0,14,75,72,32,34.1,1018.16,1,0
2022-11-02 15:21:49,880,327,-419,0,0,0,16,73,73,32,34.1,1018.16,1,0
2022-11-02 15:21:49,880,327,-419,0,0,0,16,73,73,32,34.1,1018.16,1,0
2022-11-02 15:21:49,880,327,-419,0,0,0,16,73,73,32,34.1,1018.16,1,0
2022-11-02 15:21:49,880,327,-419,0,0,0,16,73,73,32,34.1,1018.16,1,0
2022-11-02 15:21:49,880,327,-419,0,0,0,16,73,73,32,34.1,1018.16,1,0
2022-11-02 15:21:49,892,316,-421,0,0,0,16,73,73,32,34.1,1018.16,1,0
2022-11-02 15:21:49,892,316,-421,0,0,0,16,73,73,32,34.1,1018.16,1,0
2022-11-02 15:21:49,892,316,-421,0,0,0,16,73,73,32,34.1,1018.16,1,0
2022-11-02 15:21:49,892,316,-421,0,0,0,16,73,73,32,34.1,1018.16,1,0
2022-11-02 15:21:49,892,316,-421,0,0,0,16,73,73,32,34.1,1018.16,1,0
2022-11-02 15:21:49,878,333,-417,1,0,-1,14,73,73,32,34.1,1018.16,1,0
2022-11-02 15:21:49,878,333,-417,1,0,-1,14,73,73,32,34.1,1018.16,1,0
2022-11-02 15:21:49,878,333,-417,1,0,-1,14,73,73,32,34.1,1018.16,1,0
2022-11-02 15:21:49,878,333,-417,1,0,-1,14,73,73,32,34.1,1018.16,1,0
2022-11-02 15:21:49,878,333,-417,1,0,-1,14,73,73,32,34.1,1018.16,1,0
2022-11-02 15:21:49,886,320,-413,0,-2,-1,14,74,72,32,34.1,1018.16,1,0
2022-11-02 15:21:49,886,320,-413,0,-2,-1,14,74,72,32,34.1,1018.16,1,0
2022-11-02 15:21:49,886,320,-413,0,-2,-1,14,74,72,32,34.1,1018.16,1,0
2022-11-02 15:21:49,886,320,-413,0,-2,-1,14,74,72,32,34.1,1018.16,1,0
2022-11-02 15:21:49,886,320,-413,0,-2,-1,14,74,72,32,34.1,1018.16,1,0
2022-11-02 15:21:49,884,320,-423,-2,0,0,14,71,70,32,34.11,1018.17,1,0
2022-11-02 15:21:49,884,320,-423,-2,0,0,14,71,70,32,34.11,1018.17,1,0
2022-11-02 15:21:49,884,320,-423,-2,0,0,14,71,70,32,34.11,1018.17,1,0
2022-11-02 15:21:49,884,320,-423,-2,0,0,14,71,70,32,34.11,1018.17,1,0
2022-11-02 15:21:49,884,320,-423,-2,0,0,14,71,70,32,34.11,1018.17,1,0
2022-11-02 15:21:49,876,329,-419,-1,0,0,14,75,78,32,34.11,1018.17,1,0
2022-11-02 15:21:49,876,329,-419,-1,0,0,14,75,78,32,34.11,1018.17,1,0
2022-11-02 15:21:49,876,329,-419,-1,0,0,14,75,78,32,34.11,1018.17,1,0
2022-11-02 15:21:49,876,329,-419,-1,0,0,14,75,78,32,34.11,1018.17,1,0
2022-11-02 15:21:49,876,329,-419,-1,0,0,14,75,78,32,34.11,1018.17,1,0
2022-11-02 15:21:49,876,331,-423,0,0,0,16,74,74,32,34.11,1018.17,1,0
2022-11-02 15:21:49,876,331,-423,0,0,0,16,74,74,32,34.11,1018.17,1,0
2022-11-02 15:21:49,876,331,-423,0,0,0,16,74,74,32,34.11,1018.17,1,0
2022-11-02 15:21:49,876,331,-423,0,0,0,16,74,74,32,34.11,1018.17,1,0
2022-11-02 15:21:49,876,331,-423,0,0,0,16,74,74,32,34.11,1018.17,1,0
2022-11-02 15:21:49,880,324,-427,0,0,0,17,72,74,32,34.11,1018.17,1,0
2022-11-02 15:21:49,880,324,-427,0,0,0,17,72,74,32,34.11,1018.17,1,0
2022-11-02 15:21:49,880,324,-427,0,0,0,17,72,74,32,34.11,1018.17,1,0
2022-11-02 15:21:49,880,324,-427,0,0,0,17,72,74,32,34.11,1018.17,1,0
2022-11-02 15:21:49,880,324,-427,0,0,0,17,72,74,32,34.11,1018.17,1,0
2022-11-02 15:21:50,886,327,-435,0,0,0,14,72,68,32,34.11,1018.17,1,0
2022-11-02 15:21:50,886,327,-435,0,0,0,14,72,68,32,34.11,1018.17,1,0
2022-11-02 15:21:50,886,327,-435,0,0,0,14,72,68,32,34.11,1018.17,1,0
2022-11-02 15:21:50,886,327,-435,0,0,0,14,72,68,32,34.11,1018.17,1,0
2022-11-02 15:21:50,886,327,-435,0,0,0,14,72,68,32,34.11,1018.17,1,0
2022-11-02 15:21:50,882,329,-433,0,1,0,17,73,72,32,34.11,1018.17,1,0
2022-11-02 15:21:50,882,329,-433,0,1,0,17,73,72,32,34.11,1018.17,1,0
2022-11-02 15:21:50,882,329,-433,0,1,0,17,73,72,32,34.11,1018.17,1,0
2022-11-02 15:21:50,882,329,-433,0,1,0,17,73,72,32,34.11,1018.17,1,0
2022-11-02 15:21:50,882,329,-433,0,1,0,17,73,72,32,34.11,1018.17,1,0
2022-11-02 15:21:50,880,316,-431,1,1,0,15,74,74,32,34.11,1018.17,1,0
2022-11-02 15:21:50,880,316,-431,1,1,0,15,74,74,32,34.11,1018.17,1,0
2022-11-02 15:21:50,880,316,-431,1,1,0,15,74,74,32,34.11,1018.17,1,0
2022-11-02 15:21:50,880,316,-431,1,1,0,15,74,74,32,34.11,1018.17,1,0
2022-11-02 15:21:50,880,316,-431,1,1,0,15,74,74,32,34.11,1018.17,1,0
2022-11-02 15:21:50,884,325,-421,0,1,0,14,70,72,32,34.11,1018.17,1,0
2022-11-02 15:21:50,884,325,-421,0,1,0,14,70,72,32,34.11,1018.17,1,0
2022-11-02 15:21:50,884,325,-421,0,1,0,14,70,72,32,34.11,1018.17,1,0
2022-11-02 15:21:50,884,325,-421,0,1,0,14,70,72,32,34.11,1018.17,1,0
2022-11-02 15:21:50,884,325,-421,0,1,0,14,70,72,32,34.11,1018.17,1,0
2022-11-02 15:21:50,874,325,-415,0,1,0,14,75,72,32,34.11,1018.17,1,0
2022-11-02 15:21:50,874,325,-415,0,1,0,14,75,72,32,34.11,1018.17,1,0
2022-11-02 15:21:50,874,325,-415,0,1,0,14,75,72,32,34.11,1018.17,1,0
2022-11-02 15:21:50,874,325,-415,0,1,0,14,75,72,32,34.11,1018.17,1,0
2022-11-02 15:21:50,874,325,-415,0,1,0,14,75,72,32,34.11,1018.17,1,0
2022-11-02 15:21:50,880,325,-417,0,2,0,16,74,71,32,34.11,1018.17,1,0
2022-11-02 15:21:50,880,325,-417,0,2,0,16,74,71,32,34.11,1018.17,1,0
2022-11-02 15:21:50,880,325,-417,0,2,0,16,74,71,32,34.11,1018.17,1,0
2022-11-02 15:21:50,880,325,-417,0,2,0,16,74,71,32,34.11,1018.17,1,0
2022-11-02 15:21:50,880,325,-417,0,2,0,16,74,71,32,34.11,1018.17,1,0
2022-11-02 15:21:50,886,316,-421,0,2,0,18,74,73,32,34.13,1018.12,1,0
2022-11-02 15:21:50,886,316,-421,0,2,0,18,74,73,32,34.13,1018.12,1,0
2022-11-02 15:21:50,886,316,-421,0,2,0,18,74,73,32,34.13,1018.12,1,0
2022-11-02 15:21:50,886,316,-421,0,2,0,18,74,73,32,34.13,1018.12,1,0
2022-11-02 15:21:50,886,316,-421,0,2,0,18,74,73,32,34.13,1018.12,1,0
2022-11-02 15:21:50,888,322,-415,0,2,0,16,75,75,32,34.13,1018.12,1,0
2022-11-02 15:21:50,888,322,-415,0,2,0,16,75,75,32,34.13,1018.12,1,0
2022-11-02 15:21:50,888,322,-415,0,2,0,16,75,75,32,34.13,1018.12,1,0
2022-11-02 15:21:50,888,322,-415,0,2,0,16,75,75,32,34.13,1018.12,1,0
2022-11-02 15:21:50,888,322,-415,0,2,0,16,75,75,32,34.13,1018.12,1,0
2022-11-02 15:21:50,886,316,-413,0,1,0,17,72,75,32,34.13,1018.12,1,0
2022-11-02 15:21:50,886,316,-413,0,1,0,17,72,75,32,34.13,1018.12,1,0
2022-11-02 15:21:50,886,316,-413,0,1,0,17,72,75,32,34.13,1018.12,1,0
2022-11-02 15:21:50,886,316,-413,0,1,0,17,72,75,32,34.13,1018.12,1,0
2022-11-02 15:21:50,886,316,-413,0,1,0,17,72,75,32,34.13,1018.12,1,0
2022-11-02 15:21:50,895,318,-413,0,1,0,13,73,75,32,34.13,1018.12,1,0
2022-11-02 15:21:50,895,318,-413,0,1,0,13,73,75,32,34.13,1018.12,1,0
2022-11-02 15:21:50,895,318,-413,0,1,0,13,73,75,32,34.13,1018.12,1,0
2022-11-02 15:21:50,895,318,-413,0,1,0,13,73,75,32,34.13,1018.12,1,0
2022-11-02 15:21:50,895,318,-413,0,1,0,13,73,75,32,34.13,1018.12,1,0
2022-11-02 15:21:51,884,325,-411,0,0,0,14,73,72,32,34.13,1018.12,1,0
2022-11-02 15:21:51,884,325,-411,0,0,0,14,73,72,32,34.13,1018.12,1,0
2022-11-02 15:21:51,884,325,-411,0,0,0,14,73,72,32,34.13,1018.12,1,0
2022-11-02 15:21:51,884,325,-411,0,0,0,14,73,72,32,34.13,1018.12,1,0
2022-11-02 15:21:51,884,325,-411,0,0,0,14,73,72,32,34.13,1018.12,1,0
2022-11-02 15:21:51,892,320,-406,-1,0,0,15,73,75,32,34.13,1018.12,1,0
2022-11-02 15:21:51,892,320,-406,-1,0,0,15,73,75,32,34.13,1018.12,1,0
2022-11-02 15:21:51,892,320,-406,-1,0,0,15,73,75,32,34.13,1018.12,1,0
2022-11-02 15:21:51,892,320,-406,-1,0,0,15,73,75,32,34.13,1018.12,1,0
2022-11-02 15:21:51,892,320,-406,-1,0,0,15,73,75,32,34.13,1018.12,1,0
2022-11-02 15:21:51,882,329,-407,0,0,0,18,72,73,32,34.13,1018.12,1,0
2022-11-02 15:21:51,882,329,-407,0,0,0,18,72,73,32,34.13,1018.12,1,0
2022-11-02 15:21:51,882,329,-407,0,0,0,18,72,73,32,34.13,1018.12,1,0
2022-11-02 15:21:51,882,329,-407,0,0,0,18,72,73,32,34.13,1018.12,1,0
2022-11-02 15:21:51,882,329,-407,0,0,0,18,72,73,32,34.13,1018.12,1,0
2022-11-02 15:21:51,892,324,-411,0,0,0,15,72,75,32,34.13,1018.12,1,0
2022-11-02 15:21:51,892,324,-411,0,0,0,15,72,75,32,34.13,1018.12,1,0
2022-11-02 15:21:51,892,324,-411,0,0,0,15,72,75,32,34.13,1018.12,1,0
2022-11-02 15:21:51,892,324,-411,0,0,0,15,72,75,32,34.13,1018.12,1,0
2022-11-02 15:21:51,892,324,-411,0,0,0,15,72,75,32,34.13,1018.12,1,0
2022-11-02 15:21:51,892,324,-407,0,0,0,16,74,73,32,34.13,1018.12,1,0
2022-11-02 15:21:51,892,324,-407,0,0,0,16,74,73,32,34.13,1018.12,1,0
2022-11-02 15:21:51,892,324,-407,0,0,0,16,74,73,32,34.13,1018.12,1,0
2022-11-02 15:21:51,892,324,-407,0,0,0,16,74,73,32,34.13,1018.12,1,0
2022-11-02 15:21:51,892,324,-407,0,0,0,16,74,73,32,34.13,1018.12,1,0
2022-11-02 15:21:51,876,322,-411,0,0,0,15,75,75,32,34.13,1018.12,1,0
2022-11-02 15:21:51,876,322,-411,0,0,0,15,75,75,32,34.13,1018.12,1,0
2022-11-02 15:21:51,876,322,-411,0,0,0,15,75,75,32,34.13,1018.12,1,0
2022-11-02 15:21:51,876,322,-411,0,0,0,15,75,75,32,34.13,1018.12,1,0
2022-11-02 15:21:51,876,322,-411,0,0,0,15,75,75,32,34.13,1018.12,1,0
2022-11-02 15:21:51,884,324,-411,0,0,0,16,71,71,32,34.11,1018.12,1,0
2022-11-02 15:21:51,884,324,-411,0,0,0,16,71,71,32,34.11,1018.12,1,0
2022-11-02 15:21:51,884,324,-411,0,0,0,16,71,71,32,34.11,1018.12,1,0
2022-11-02 15:21:51,884,324,-411,0,0,0,16,71,71,32,34.11,1018.12,1,0
2022-11-02 15:21:51,884,324,-411,0,0,0,16,71,71,32,34.11,1018.12,1,0
2022-11-02 15:21:51,886,324,-419,0,0,0,16,74,70,32,34.11,1018.12,1,0
2022-11-02 15:21:51,886,324,-419,0,0,0,16,74,70,32,34.11,1018.12,1,0
2022-11-02 15:21:51,886,324,-419,0,0,0,16,74,70,32,34.11,1018.12,1,0
2022-11-02 15:21:51,886,324,-419,0,0,0,16,74,70,32,34.11,1018.12,1,0
2022-11-02 15:21:51,886,324,-419,0,0,0,16,74,70,32,34.11,1018.12,1,0
2022-11-02 15:21:51,878,327,-409,0,0,0,15,73,70,32,34.11,1018.12,1,0
2022-11-02 15:21:51,878,327,-409,0,0,0,15,73,70,32,34.11,1018.12,1,0
2022-11-02 15:21:51,878,327,-409,0,0,0,15,73,70,32,34.11,1018.12,1,0
2022-11-02 15:21:51,878,327,-409,0,0,0,15,73,70,32,34.11,1018.12,1,0
2022-11-02 15:21:51,878,327,-409,0,0,0,15,73,70,32,34.11,1018.12,1,0
2022-11-02 15:21:51,884,329,-409,0,0,0,15,71,76,32,34.11,1018.12,1,0
2022-11-02 15:21:51,884,329,-409,0,0,0,15,71,76,32,34.11,1018.12,1,0
2022-11-02 15:21:51,884,329,-409,0,0,0,15,71,76,32,34.11,1018.12,1,0
2022-11-02 15:21:51,884,329,-409,0,0,0,15,71,76,32,34.11,1018.12,1,0
2022-11-02 15:21:51,884,329,-409,0,0,0,15,71,76,32,34.11,1018.12,1,0
2022-11-02 15:21:52,876,333,-427,0,0,0,16,73,74,32,34.11,1018.12,1,0
2022-11-02 15:21:52,876,333,-427,0,0,0,16,73,74,32,34.11,1018.12,1,0
2022-11-02 15:21:52,876,333,-427,0,0,0,16,73,74,32,34.11,1018.12,1,0
2022-11-02 15:21:52,876,333,-427,0,0,0,16,73,74,32,34.11,1018.12,1,0
2022-11-02 15:21:52,876,333,-427,0,0,0,16,73,74,32,34.11,1018.12,1,0
2022-11-02 15:21:52,882,324,-431,0,0,0,16,74,72,32,34.11,1018.12,1,0
2022-11-02 15:21:52,882,324,-431,0,0,0,16,74,72,32,34.11,1018.12,1,0
2022-11-02 15:21:52,882,324,-431,0,0,0,16,74,72,32,34.11,1018.12,1,0
2022-11-02 15:21:52,882,324,-431,0,0,0,16,74,72,32,34.11,1018.12,1,0
2022-11-02 15:21:52,882,324,-431,0,0,0,16,74,72,32,34.11,1018.12,1,0
2022-11-02 15:21:52,888,333,-425,0,0,0,17,73,73,32,34.11,1018.12,1,0
2022-11-02 15:21:52,888,333,-425,0,0,0,17,73,73,32,34.11,1018.12,1,0
2022-11-02 15:21:52,888,333,-425,0,0,0,17,73,73,32,34.11,1018.12,1,0
2022-11-02 15:21:52,888,333,-425,0,0,0,17,73,73,32,34.11,1018.12,1,0
2022-11-02 15:21:52,888,333,-425,0,0,0,17,73,73,32,34.11,1018.12,1,0
2022-11-02 15:21:52,882,331,-413,0,0,0,14,71,74,32,34.11,1018.12,1,0
2022-11-02 15:21:52,882,331,-413,0,0,0,14,71,74,32,34.11,1018.12,1,0
2022-11-02 15:21:52,882,331,-413,0,0,0,14,71,74,32,34.11,1018.12,1,0
2022-11-02 15:21:52,882,331,-413,0,0,0,14,71,74,32,34.11,1018.12,1,0
2022-11-02 15:21:52,882,331,-413,0,0,0,14,71,74,32,34.11,1018.12,1,0
2022-11-02 15:21:52,880,324,-423,0,0,0,14,72,74,32,34.11,1018.12,1,0
2022-11-02 15:21:52,880,324,-423,0,0,0,14,72,74,32,34.11,1018.12,1,0
2022-11-02 15:21:52,880,324,-423,0,0,0,14,72,74,32,34.11,1018.12,1,0
2022-11-02 15:21:52,880,324,-423,0,0,0,14,72,74,32,34.11,1018.12,1,0
2022-11-02 15:21:52,880,324,-423,0,0,0,14,72,74,32,34.11,1018.12,1,0
2022-11-02 15:21:52,886,325,-419,0,0,0,13,73,74,32,34.11,1018.12,1,0
2022-11-02 15:21:52,886,325,-419,0,0,0,13,73,74,32,34.11,1018.12,1,0
2022-11-02 15:21:52,886,325,-419,0,0,0,13,73,74,32,34.11,1018.12,1,0
2022-11-02 15:21:52,886,325,-419,0,0,0,13,73,74,32,34.11,1018.12,1,0
2022-11-02 15:21:52,886,325,-419,0,0,0,13,73,74,32,34.11,1018.12,1,0
2022-11-02 15:21:52,880,327,-431,0,1,0,16,74,76,32,34.13,1018.11,1,0
2022-11-02 15:21:52,880,327,-431,0,1,0,16,74,76,32,34.13,1018.11,1,0
2022-11-02 15:21:52,880,327,-431,0,1,0,16,74,76,32,34.13,1018.11,1,0
2022-11-02 15:21:52,880,327,-431,0,1,0,16,74,76,32,34.13,1018.11,1,0
2022-11-02 15:21:52,880,327,-431,0,1,0,16,74,76,32,34.13,1018.11,1,0
2022-11-02 15:21:52,890,325,-409,0,1,0,15,73,73,32,34.13,1018.11,1,0
2022-11-02 15:21:52,890,325,-409,0,1,0,15,73,73,32,34.13,1018.11,1,0
2022-11-02 15:21:52,890,325,-409,0,1,0,15,73,73,32,34.13,1018.11,1,0
2022-11-02 15:21:52,890,325,-409,0,1,0,15,73,73,32,34.13,1018.11,1,0
2022-11-02 15:21:52,890,325,-409,0,1,0,15,73,73,32,34.13,1018.11,1,0
2022-11-02 15:21:52,886,322,-421,0,1,0,15,71,73,32,34.13,1018.11,1,0
2022-11-02 15:21:52,886,322,-421,0,1,0,15,71,73,32,34.13,1018.11,1,0
2022-11-02 15:21:52,886,322,-421,0,1,0,15,71,73,32,34.13,1018.11,1,0
2022-11-02 15:21:52,886,322,-421,0,1,0,15,71,73,32,34.13,1018.11,1,0
2022-11-02 15:21:52,886,322,-421,0,1,0,15,71,73,32,34.13,1018.11,1,0
2022-11-02 15:21:52,884,318,-407,0,1,0,13,73,70,32,34.13,1018.11,1,0
2022-11-02 15:21:52,884,318,-407,0,1,0,13,73,70,32,34.13,1018.11,1,0
2022-11-02 15:21:52,884,318,-407,0,1,0,13,73,70,32,34.13,1018.11,1,0
2022-11-02 15:21:52,884,318,-407,0,1,0,13,73,70,32,34.13,1018.11,1,0
2022-11-02 15:21:52,884,318,-407,0,1,0,13,73,70,32,34.13,1018.11,1,0
2022-11-02 15:21:53,892,327,-413,0,1,0,16,73,76,32,34.13,1018.11,1,0
2022-11-02 15:21:53,892,327,-413,0,1,0,16,73,76,32,34.13,1018.11,1,0
2022-11-02 15:21:53,892,327,-413,0,1,0,16,73,76,32,34.13,1018.11,1,0
2022-11-02 15:21:53,892,327,-413,0,1,0,16,73,76,32,34.13,1018.11,1,0
2022-11-02 15:21:53,892,327,-413,0,1,0,16,73,76,32,34.13,1018.11,1,0
2022-11-02 15:21:53,890,322,-402,0,1,0,13,73,76,32,34.13,1018.11,1,0
2022-11-02 15:21:53,890,322,-402,0,1,0,13,73,76,32,34.13,1018.11,1,0
2022-11-02 15:21:53,890,322,-402,0,1,0,13,73,76,32,34.13,1018.11,1,0
2022-11-02 15:21:53,890,322,-402,0,1,0,13,73,76,32,34.13,1018.11,1,0
2022-11-02 15:21:53,890,322,-402,0,1,0,13,73,76,32,34.13,1018.11,1,0
2022-11-02 15:21:53,892,320,-409,0,1,0,17,72,72,32,34.13,1018.11,1,0
2022-11-02 15:21:53,892,320,-409,0,1,0,17,72,72,32,34.13,1018.11,1,0
2022-11-02 15:21:53,892,320,-409,0,1,0,17,72,72,32,34.13,1018.11,1,0
2022-11-02 15:21:53,892,320,-409,0,1,0,17,72,72,32,34.13,1018.11,1,0
2022-11-02 15:21:53,892,320,-409,0,1,0,17,72,72,32,34.13,1018.11,1,0
2022-11-02 15:21:53,890,324,-409,0,0,0,17,73,75,32,34.13,1018.11,1,0
2022-11-02 15:21:53,890,324,-409,0,0,0,17,73,75,32,34.13,1018.11,1,0
2022-11-02 15:21:53,890,324,-409,0,0,0,17,73,75,32,34.13,1018.11,1,0
2022-11-02 15:21:53,890,324,-409,0,0,0,17,73,75,32,34.13,1018.11,1,0
2022-11-02 15:21:53,890,324,-409,0,0,0,17,73,75,32,34.13,1018.11,1,0
2022-11-02 15:21:53,884,320,-417,0,0,0,16,72,76,32,34.13,1018.11,1,0
2022-11-02 15:21:53,884,320,-417,0,0,0,16,72,76,32,34.13,1018.11,1,0
2022-11-02 15:21:53,884,320,-417,0,0,0,16,72,76,32,34.13,1018.11,1,0
2022-11-02 15:21:53,884,320,-417,0,0,0,16,72,76,32,34.13,1018.11,1,0
2022-11-02 15:21:53,884,320,-417,0,0,0,16,72,76,32,34.13,1018.11,1,0
2022-11-02 15:21:53,886,324,-404,0,0,0,16,72,74,32,34.13,1018.11,1,0
2022-11-02 15:21:53,886,324,-404,0,0,0,16,72,74,32,34.13,1018.11,1,0
2022-11-02 15:21:53,886,324,-404,0,0,0,16,72,74,32,34.13,1018.11,1,0
2022-11-02 15:21:53,886,324,-404,0,0,0,16,72,74,32,34.13,1018.11,1,0
2022-11-02 15:21:53,886,324,-404,0,0,0,16,72,74,32,34.13,1018.11,1,0
2022-11-02 15:21:53,888,329,-409,0,0,0,15,74,76,32,34.14,1018.11,1,0
2022-11-02 15:21:53,888,329,-409,0,0,0,15,74,76,32,34.14,1018.11,1,0
2022-11-02 15:21:53,888,329,-409,0,0,0,15,74,76,32,34.14,1018.11,1,0
2022-11-02 15:21:53,888,329,-409,0,0,0,15,74,76,32,34.14,1018.11,1,0
2022-11-02 15:21:53,888,329,-409,0,0,0,15,74,76,32,34.14,1018.11,1,0
2022-11-02 15:21:53,882,316,-413,0,0,0,17,73,69,32,34.14,1018.11,1,0
2022-11-02 15:21:53,882,316,-413,0,0,0,17,73,69,32,34.14,1018.11,1,0
2022-11-02 15:21:53,882,316,-413,0,0,0,17,73,69,32,34.14,1018.11,1,0
2022-11-02 15:21:53,882,316,-413,0,0,0,17,73,69,32,34.14,1018.11,1,0
2022-11-02 15:21:53,882,316,-413,0,0,0,17,73,69,32,34.14,1018.11,1,0
2022-11-02 15:21:53,886,324,-413,0,0,0,16,72,76,32,34.14,1018.11,1,0
2022-11-02 15:21:53,886,324,-413,0,0,0,16,72,76,32,34.14,1018.11,1,0
2022-11-02 15:21:53,886,324,-413,0,0,0,16,72,76,32,34.14,1018.11,1,0
2022-11-02 15:21:53,886,324,-413,0,0,0,16,72,76,32,34.14,1018.11,1,0
2022-11-02 15:21:53,886,324,-413,0,0,0,16,72,76,32,34.14,1018.11,1,0
2022-11-02 15:21:53,882,318,-413,0,0,0,16,74,74,32,34.14,1018.11,1,0
2022-11-02 15:21:53,882,318,-413,0,0,0,16,74,74,32,34.14,1018.11,1,0
2022-11-02 15:21:53,882,318,-413,0,0,0,16,74,74,32,34.14,1018.11,1,0
2022-11-02 15:21:53,882,318,-413,0,0,0,16,74,74,32,34.14,1018.11,1,0
2022-11-02 15:21:53,882,318,-413,0,0,0,16,74,74,32,34.14,1018.11,1,0
2022-11-02 15:21:54,884,324,-429,0,0,0,16,72,72,32,34.14,1018.11,1,0
2022-11-02 15:21:54,884,324,-429,0,0,0,16,72,72,32,34.14,1018.11,1,0
2022-11-02 15:21:54,884,324,-429,0,0,0,16,72,72,32,34.14,1018.11,1,0
2022-11-02 15:21:54,884,324,-429,0,0,0,16,72,72,32,34.14,1018.11,1,0
2022-11-02 15:21:54,884,324,-429,0,0,0,16,72,72,32,34.14,1018.11,1,0
2022-11-02 15:21:54,882,324,-419,0,0,0,14,72,72,32,34.14,1018.11,1,0
2022-11-02 15:21:54,882,324,-419,0,0,0,14,72,72,32,34.14,1018.11,1,0
2022-11-02 15:21:54,882,324,-419,0,0,0,14,72,72,32,34.14,1018.11,1,0
2022-11-02 15:21:54,882,324,-419,0,0,0,14,72,72,32,34.14,1018.11,1,0
2022-11-02 15:21:54,882,324,-419,0,0,0,14,72,72,32,34.14,1018.11,1,0
2022-11-02 15:21:54,886,318,-413,0,1,0,14,73,73,32,34.14,1018.11,1,0
2022-11-02 15:21:54,886,318,-413,0,1,0,14,73,73,32,34.14,1018.11,1,0
2022-11-02 15:21:54,886,318,-413,0,1,0,14,73,73,32,34.14,1018.11,1,0
2022-11-02 15:21:54,886,318,-413,0,1,0,14,73,73,32,34.14,1018.11,1,0
2022-11-02 15:21:54,886,318,-413,0,1,0,14,73,73,32,34.14,1018.11,1,0
2022-11-02 15:21:54,876,316,-415,0,0,0,17,72,72,32,34.14,1018.11,1,0
2022-11-02 15:21:54,876,316,-415,0,0,0,17,72,72,32,34.14,1018.11,1,0
2022-11-02 15:21:54,876,316,-415,0,0,0,17,72,72,32,34.14,1018.11,1,0
2022-11-02 15:21:54,876,316,-415,0,0,0,17,72,72,32,34.14,1018.11,1,0
2022-11-02 15:21:54,876,316,-415,0,0,0,17,72,72,32,34.14,1018.11,1,0
2022-11-02 15:21:54,882,322,-407,0,0,0,14,72,73,32,34.14,1018.11,1,0
2022-11-02 15:21:54,882,322,-407,0,0,0,14,72,73,32,34.14,1018.11,1,0
2022-11-02 15:21:54,882,322,-407,0,0,0,14,72,73,32,34.14,1018.11,1,0
2022-11-02 15:21:54,882,322,-407,0,0,0,14,72,73,32,34.14,1018.11,1,0
2022-11-02 15:21:54,882,322,-407,0,0,0,14,72,73,32,34.14,1018.11,1,0
2022-11-02 15:21:54,888,318,-427,0,0,0,14,73,73,32,34.14,1018.11,1,0
2022-11-02 15:21:54,888,318,-427,0,0,0,14,73,73,32,34.14,1018.11,1,0
2022-11-02 15:21:54,888,318,-427,0,0,0,14,73,73,32,34.14,1018.11,1,0
2022-11-02 15:21:54,888,318,-427,0,0,0,14,73,73,32,34.14,1018.11,1,0
2022-11-02 15:21:54,888,318,-427,0,0,0,14,73,73,32,34.14,1018.11,1,0
2022-11-02 15:21:54,882,324,-415,0,0,0,15,72,69,32,34.14,1018.16,1,0
2022-11-02 15:21:54,882,324,-415,0,0,0,15,72,69,32,34.14,1018.16,1,0
2022-11-02 15:21:54,882,324,-415,0,0,0,15,72,69,32,34.14,1018.16,1,0
2022-11-02 15:21:54,882,324,-415,0,0,0,15,72,69,32,34.14,1018.16,1,0
2022-11-02 15:21:54,882,324,-415,0,0,0,15,72,69,32,34.14,1018.16,1,0
2022-11-02 15:21:54,890,329,-423,1,0,0,18,72,75,32,34.14,1018.16,1,0
2022-11-02 15:21:54,890,329,-423,1,0,0,18,72,75,32,34.14,1018.16,1,0
2022-11-02 15:21:54,890,329,-423,1,0,0,18,72,75,32,34.14,1018.16,1,0
2022-11-02 15:21:54,890,329,-423,1,0,0,18,72,75,32,34.14,1018.16,1,0
2022-11-02 15:21:54,890,329,-423,1,0,0,18,72,75,32,34.14,1018.16,1,0
2022-11-02 15:21:54,886,320,-413,0,0,0,16,74,76,32,34.14,1018.16,1,0
2022-11-02 15:21:54,886,320,-413,0,0,0,16,74,76,32,34.14,1018.16,1,0
2022-11-02 15:21:54,886,320,-413,0,0,0,16,74,76,32,34.14,1018.16,1,0
2022-11-02 15:21:54,886,320,-413,0,0,0,16,74,76,32,34.14,1018.16,1,0
2022-11-02 15:21:54,886,320,-413,0,0,0,16,74,76,32,34.14,1018.16,1,0
2022-11-02 15:21:54,882,331,-406,0,0,0,15,72,75,32,34.14,1018.16,1,0
2022-11-02 15:21:54,882,331,-406,0,0,0,15,72,75,32,34.14,1018.16,1,0
2022-11-02 15:21:54,882,331,-406,0,0,0,15,72,75,32,34.14,1018.16,1,0
2022-11-02 15:21:54,882,331,-406,0,0,0,15,72,75,32,34.14,1018.16,1,0
2022-11-02 15:21:54,882,331,-406,0,0,0,15,72,75,32,34.14,1018.16,1,0
2022-11-02 15:21:55,882,324,-429,0,0,0,16,72,79,32,34.14,1018.16,1,0
2022-11-02 15:21:55,882,324,-429,0,0,0,16,72,79,32,34.14,1018.16,1,0
2022-11-02 15:21:55,882,324,-429,0,0,0,16,72,79,32,34.14,1018.16,1,0
2022-11-02 15:21:55,882,324,-429,0,0,0,16,72,79,32,34.14,1018.16,1,0
2022-11-02 15:21:55,882,324,-429,0,0,0,16,72,79,32,34.14,1018.16,1,0
2022-11-02 15:21:55,884,325,-415,0,-1,0,16,75,72,32,34.14,1018.16,1,0
2022-11-02 15:21:55,884,325,-415,0,-1,0,16,75,72,32,34.14,1018.16,1,0
2022-11-02 15:21:55,884,325,-415,0,-1,0,16,75,72,32,34.14,1018.16,1,0
2022-11-02 15:21:55,884,325,-415,0,-1,0,16,75,72,32,34.14,1018.16,1,0
2022-11-02 15:21:55,884,325,-415,0,-1,0,16,75,72,32,34.14,1018.16,1,0
2022-11-02 15:21:55,876,327,-417,0,0,0,13,73,73,32,34.14,1018.16,1,0
2022-11-02 15:21:55,876,327,-417,0,0,0,13,73,73,32,34.14,1018.16,1,0
2022-11-02 15:21:55,876,327,-417,0,0,0,13,73,73,32,34.14,1018.16,1,0
2022-11-02 15:21:55,876,327,-417,0,0,0,13,73,73,32,34.14,1018.16,1,0
2022-11-02 15:21:55,876,327,-417,0,0,0,13,73,73,32,34.14,1018.16,1,0
2022-11-02 15:21:55,886,320,-423,0,0,0,15,74,76,32,34.14,1018.16,1,0
2022-11-02 15:21:55,886,320,-423,0,0,0,15,74,76,32,34.14,1018.16,1,0
2022-11-02 15:21:55,886,320,-423,0,0,0,15,74,76,32,34.14,1018.16,1,0
2022-11-02 15:21:55,886,320,-423,0,0,0,15,74,76,32,34.14,1018.16,1,0
2022-11-02 15:21:55,886,320,-423,0,0,0,15,74,76,32,34.14,1018.16,1,0
2022-11-02 15:21:55,878,320,-429,0,0,0,17,74,74,32,34.14,1018.16,1,0
2022-11-02 15:21:55,878,320,-429,0,0,0,17,74,74,32,34.14,1018.16,1,0
2022-11-02 15:21:55,878,320,-429,0,0,0,17,74,74,32,34.14,1018.16,1,0
2022-11-02 15:21:55,878,320,-429,0,0,0,17,74,74,32,34.14,1018.16,1,0
2022-11-02 15:21:55,878,320,-429,0,0,0,17,74,74,32,34.14,1018.16,1,0
2022-11-02 15:21:55,878,327,-435,0,0,0,15,74,72,32,34.14,1018.16,1,0
2022-11-02 15:21:55,878,327,-435,0,0,0,15,74,72,32,34.14,1018.16,1,0
2022-11-02 15:21:55,878,327,-435,0,0,0,15,74,72,32,34.14,1018.16,1,0
2022-11-02 15:21:55,878,327,-435,0,0,0,15,74,72,32,34.14,1018.16,1,0
2022-11-02 15:21:55,878,327,-435,0,0,0,15,74,72,32,34.14,1018.16,1,0
2022-11-02 15:21:55,876,320,-421,0,0,0,15,75,71,32,34.11,1018.18,1,0
2022-11-02 15:21:55,876,320,-421,0,0,0,15,75,71,32,34.11,1018.18,1,0
2022-11-02 15:21:55,876,320,-421,0,0,0,15,75,71,32,34.11,1018.18,1,0
2022-11-02 15:21:55,876,320,-421,0,0,0,15,75,71,32,34.11,1018.18,1,0
2022-11-02 15:21:55,876,320,-421,0,0,0,15,75,71,32,34.11,1018.18,1,0
2022-11-02 15:21:55,888,327,-419,0,0,0,14,72,75,32,34.11,1018.18,1,0
2022-11-02 15:21:55,888,327,-419,0,0,0,14,72,75,32,34.11,1018.18,1,0
2022-11-02 15:21:55,888,327,-419,0,0,0,14,72,75,32,34.11,1018.18,1,0
2022-11-02 15:21:55,888,327,-419,0,0,0,14,72,75,32,34.11,1018.18,1,0
2022-11-02 15:21:55,888,327,-419,0,0,0,14,72,75,32,34.11,1018.18,1,0
2022-11-02 15:21:55,872,320,-425,0,0,0,15,72,73,32,34.11,1018.18,1,0
2022-11-02 15:21:55,872,320,-425,0,0,0,15,72,73,32,34.11,1018.18,1,0
2022-11-02 15:21:55,872,320,-425,0,0,0,15,72,73,32,34.11,1018.18,1,0
2022-11-02 15:21:55,872,320,-425,0,0,0,15,72,73,32,34.11,1018.18,1,0
2022-11-02 15:21:55,872,320,-425,0,0,0,15,72,73,32,34.11,1018.18,1,0
2022-11-02 15:21:55,894,325,-413,0,0,0,16,74,72,32,34.11,1018.18,1,0
2022-11-02 15:21:55,894,325,-413,0,0,0,16,74,72,32,34.11,1018.18,1,0
2022-11-02 15:21:55,894,325,-413,0,0,0,16,74,72,32,34.11,1018.18,1,0
2022-11-02 15:21:55,894,325,-413,0,0,0,16,74,72,32,34.11,1018.18,1,0
2022-11-02 15:21:55,894,325,-413,0,0,0,16,74,72,32,34.11,1018.18,1,0
2022-11-02 15:21:56,876,325,-431,0,1,0,16,73,70,32,34.11,1018.18,1,0
2022-11-02 15:21:56,876,325,-431,0,1,0,16,73,70,32,34.11,1018.18,1,0
2022-11-02 15:21:56,876,325,-431,0,1,0,16,73,70,32,34.11,1018.18,1,0
2022-11-02 15:21:56,876,325,-431,0,1,0,16,73,70,32,34.11,1018.18,1,0
2022-11-02 15:21:56,876,325,-431,0,1,0,16,73,70,32,34.11,1018.18,1,0
2022-11-02 15:21:56,876,316,-419,1,2,0,15,74,70,32,34.11,1018.18,1,0
2022-11-02 15:21:56,876,316,-419,1,2,0,15,74,70,32,34.11,1018.18,1,0
2022-11-02 15:21:56,876,316,-419,1,2,0,15,74,70,32,34.11,1018.18,1,0
2022-11-02 15:21:56,876,316,-419,1,2,0,15,74,70,32,34.11,1018.18,1,0
2022-11-02 15:21:56,876,316,-419,1,2,0,15,74,70,32,34.11,1018.18,1,0
2022-11-02 15:21:56,884,327,-413,1,1,0,16,75,71,32,34.11,1018.18,1,0
2022-11-02 15:21:56,884,327,-413,1,1,0,16,75,71,32,34.11,1018.18,1,0
2022-11-02 15:21:56,884,327,-413,1,1,0,16,75,71,32,34.11,1018.18,1,0
2022-11-02 15:21:56,884,327,-413,1,1,0,16,75,71,32,34.11,1018.18,1,0
2022-11-02 15:21:56,884,327,-413,1,1,0,16,75,71,32,34.11,1018.18,1,0
2022-11-02 15:21:56,886,320,-421,0,1,0,15,74,72,32,34.11,1018.18,1,0
2022-11-02 15:21:56,886,320,-421,0,1,0,15,74,72,32,34.11,1018.18,1,0
2022-11-02 15:21:56,886,320,-421,0,1,0,15,74,72,32,34.11,1018.18,1,0
2022-11-02 15:21:56,886,320,-421,0,1,0,15,74,72,32,34.11,1018.18,1,0
2022-11-02 15:21:56,886,320,-421,0,1,0,15,74,72,32,34.11,1018.18,1,0
2022-11-02 15:21:56,892,316,-411,0,1,0,14,72,74,32,34.11,1018.18,1,0
2022-11-02 15:21:56,892,316,-411,0,1,0,14,72,74,32,34.11,1018.18,1,0
2022-11-02 15:21:56,892,316,-411,0,1,0,14,72,74,32,34.11,1018.18,1,0
2022-11-02 15:21:56,892,316,-411,0,1,0,14,72,74,32,34.11,1018.18,1,0
2022-11-02 15:21:56,892,316,-411,0,1,0,14,72,74,32,34.11,1018.18,1,0
2022-11-02 15:21:56,894,316,-417,0,1,0,15,72,76,32,34.11,1018.18,1,0
2022-11-02 15:21:56,894,316,-417,0,1,0,15,72,76,32,34.11,1018.18,1,0
2022-11-02 15:21:56,894,316,-417,0,1,0,15,72,76,32,34.11,1018.18,1,0
2022-11-02 15:21:56,894,316,-417,0,1,0,15,72,76,32,34.11,1018.18,1,0
2022-11-02 15:21:56,894,316,-417,0,1,0,15,72,76,32,34.11,1018.18,1,0
2022-11-02 15:21:56,890,316,-407,0,0,0,18,69,70,32,34.14,1018.09,1,0
2022-11-02 15:21:56,890,316,-407,0,0,0,18,69,70,32,34.14,1018.09,1,0
2022-11-02 15:21:56,890,316,-407,0,0,0,18,69,70,32,34.14,1018.09,1,0
2022-11-02 15:21:56,890,316,-407,0,0,0,18,69,70,32,34.14,1018.09,1,0
2022-11-02 15:21:56,890,316,-407,0,0,0,18,69,70,32,34.14,1018.09,1,0
2022-11-02 15:21:56,894,318,-409,0,0,0,17,74,72,32,34.14,1018.09,1,0
2022-11-02 15:21:56,894,318,-409,0,0,0,17,74,72,32,34.14,1018.09,1,0
2022-11-02 15:21:56,894,318,-409,0,0,0,17,74,72,32,34.14,1018.09,1,0
2022-11-02 15:21:56,894,318,-409,0,0,0,17,74,72,32,34.14,1018.09,1,0
2022-11-02 15:21:56,894,318,-409,0,0,0,17,74,72,32,34.14,1018.09,1,0
2022-11-02 15:21:56,882,322,-402,0,0,0,15,74,73,32,34.14,1018.09,1,0
2022-11-02 15:21:56,882,322,-402,0,0,0,15,74,73,32,34.14,1018.09,1,0
2022-11-02 15:21:56,882,322,-402,0,0,0,15,74,73,32,34.14,1018.09,1,0
2022-11-02 15:21:56,882,322,-402,0,0,0,15,74,73,32,34.14,1018.09,1,0
2022-11-02 15:21:56,882,322,-402,0,0,0,15,74,73,32,34.14,1018.09,1,0
2022-11-02 15:21:56,882,314,-411,0,0,0,18,73,69,32,34.14,1018.09,1,0
2022-11-02 15:21:56,882,314,-411,0,0,0,18,73,69,32,34.14,1018.09,1,0
2022-11-02 15:21:56,882,314,-411,0,0,0,18,73,69,32,34.14,1018.09,1,0
2022-11-02 15:21:56,882,314,-411,0,0,0,18,73,69,32,34.14,1018.09,1,0
2022-11-02 15:21:56,882,314,-411,0,0,0,18,73,69,32,34.14,1018.09,1,0
2022-11-02 15:21:57,886,325,-415,0,0,0,14,73,77,32,34.14,1018.09,1,0
2022-11-02 15:21:57,886,325,-415,0,0,0,14,73,77,32,34.14,1018.09,1,0
2022-11-02 15:21:57,886,325,-415,0,0,0,14,73,77,32,34.14,1018.09,1,0
2022-11-02 15:21:57,886,325,-415,0,0,0,14,73,77,32,34.14,1018.09,1,0
2022-11-02 15:21:57,886,325,-415,0,0,0,14,73,77,32,34.14,1018.09,1,0
2022-11-02 15:21:57,882,327,-425,0,0,0,13,72,73,32,34.14,1018.09,1,0
2022-11-02 15:21:57,882,327,-425,0,0,0,13,72,73,32,34.14,1018.09,1,0
2022-11-02 15:21:57,882,327,-425,0,0,0,13,72,73,32,34.14,1018.09,1,0
2022-11-02 15:21:57,882,327,-425,0,0,0,13,72,73,32,34.14,1018.09,1,0
2022-11-02 15:21:57,882,327,-425,0,0,0,13,72,73,32,34.14,1018.09,1,0
2022-11-02 15:21:57,890,325,-415,0,0,0,17,71,76,32,34.14,1018.09,1,0
2022-11-02 15:21:57,890,325,-415,0,0,0,17,71,76,32,34.14,1018.09,1,0
2022-11-02 15:21:57,890,325,-415,0,0,0,17,71,76,32,34.14,1018.09,1,0
2022-11-02 15:21:57,890,325,-415,0,0,0,17,71,76,32,34.14,1018.09,1,0
2022-11-02 15:21:57,890,325,-415,0,0,0,17,71,76,32,34.14,1018.09,1,0
2022-11-02 15:21:57,895,314,-413,0,0,0,14,72,73,32,34.14,1018.09,1,0
2022-11-02 15:21:57,895,314,-413,0,0,0,14,72,73,32,34.14,1018.09,1,0
2022-11-02 15:21:57,895,314,-413,0,0,0,14,72,73,32,34.14,1018.09,1,0
2022-11-02 15:21:57,895,314,-413,0,0,0,14,72,73,32,34.14,1018.09,1,0
2022-11-02 15:21:57,895,314,-413,0,0,0,14,72,73,32,34.14,1018.09,1,0
2022-11-02 15:21:57,880,322,-419,0,0,0,16,74,70,32,34.14,1018.09,1,0
2022-11-02 15:21:57,880,322,-419,0,0,0,16,74,70,32,34.14,1018.09,1,0
2022-11-02 15:21:57,880,322,-419,0,0,0,16,74,70,32,34.14,1018.09,1,0
2022-11-02 15:21:57,880,322,-419,0,0,0,16,74,70,32,34.14,1018.09,1,0
2022-11-02 15:21:57,880,322,-419,0,0,0,16,74,70,32,34.14,1018.09,1,0
2022-11-02 15:21:57,880,322,-421,0,0,0,16,74,71,32,34.14,1018.09,1,0
2022-11-02 15:21:57,880,322,-421,0,0,0,16,74,71,32,34.14,1018.09,1,0
2022-11-02 15:21:57,880,322,-421,0,0,0,16,74,71,32,34.14,1018.09,1,0
2022-11-02 15:21:57,880,322,-421,0,0,0,16,74,71,32,34.14,1018.09,1,0
2022-11-02 15:21:57,880,322,-421,0,0,0,16,74,71,32,34.14,1018.09,1,0
2022-11-02 15:21:57,878,329,-415,0,0,0,14,73,74,32,34.15,1018.09,1,0
2022-11-02 15:21:57,878,329,-415,0,0,0,14,73,74,32,34.15,1018.09,1,0
2022-11-02 15:21:57,878,329,-415,0,0,0,14,73,74,32,34.15,1018.09,1,0
2022-11-02 15:21:57,878,329,-415,0,0,0,14,73,74,32,34.15,1018.09,1,0
2022-11-02 15:21:57,878,329,-415,0,0,0,14,73,74,32,34.15,1018.09,1,0
2022-11-02 15:21:57,880,324,-423,0,0,0,15,74,70,32,34.15,1018.09,1,0
2022-11-02 15:21:57,880,324,-423,0,0,0,15,74,70,32,34.15,1018.09,1,0
2022-11-02 15:21:57,880,324,-423,0,0,0,15,74,70,32,34.15,1018.09,1,0
2022-11-02 15:21:57,880,324,-423,0,0,0,15,74,70,32,34.15,1018.09,1,0
2022-11-02 15:21:57,880,324,-423,0,0,0,15,74,70,32,34.15,1018.09,1,0
2022-11-02 15:21:57,880,324,-421,0,0,0,16,71,78,32,34.15,1018.09,1,0
2022-11-02 15:21:57,880,324,-421,0,0,0,16,71,78,32,34.15,1018.09,1,0
2022-11-02 15:21:57,880,324,-421,0,0,0,16,71,78,32,34.15,1018.09,1,0
2022-11-02 15:21:57,880,324,-421,0,0,0,16,71,78,32,34.15,1018.09,1,0
2022-11-02 15:21:57,880,324,-421,0,0,0,16,71,78,32,34.15,1018.09,1,0
2022-11-02 15:21:57,894,325,-425,0,0,0,16,72,73,32,34.15,1018.09,1,0
2022-11-02 15:21:57,894,325,-425,0,0,0,16,72,73,32,34.15,1018.09,1,0
2022-11-02 15:21:57,894,325,-425,0,0,0,16,72,73,32,34.15,1018.09,1,0
2022-11-02 15:21:57,894,325,-425,0,0,0,16,72,73,32,34.15,1018.09,1,0
2022-11-02 15:21:57,894,325,-425,0,0,0,16,72,73,32,34.15,1018.09,1,0
2022-11-02 15:21:58,880,327,-419,0,0,0,14,73,74,32,34.15,1018.09,1,0
2022-11-02 15:21:58,880,327,-419,0,0,0,14,73,74,32,34.15,1018.09,1,0
2022-11-02 15:21:58,880,327,-419,0,0,0,14,73,74,32,34.15,1018.09,1,0
2022-11-02 15:21:58,880,327,-419,0,0,0,14,73,74,32,34.15,1018.09,1,0
2022-11-02 15:21:58,880,327,-419,0,0,0,14,73,74,32,34.15,1018.09,1,0
2022-11-02 15:21:58,880,324,-429,0,0,0,14,74,73,32,34.15,1018.09,1,0
2022-11-02 15:21:58,880,324,-429,0,0,0,14,74,73,32,34.15,1018.09,1,0
2022-11-02 15:21:58,880,324,-429,0,0,0,14,74,73,32,34.15,1018.09,1,0
2022-11-02 15:21:58,880,324,-429,0,0,0,14,74,73,32,34.15,1018.09,1,0
2022-11-02 15:21:58,880,324,-429,0,0,0,14,74,73,32,34.15,1018.09,1,0
2022-11-02 15:21:58,886,322,-419,0,0,0,16,73,75,32,34.15,1018.09,1,0
2022-11-02 15:21:58,886,322,-419,0,0,0,16,73,75,32,34.15,1018.09,1,0
2022-11-02 15:21:58,886,322,-419,0,0,0,16,73,75,32,34.15,1018.09,1,0
2022-11-02 15:21:58,886,322,-419,0,0,0,16,73,75,32,34.15,1018.09,1,0
2022-11-02 15:21:58,886,322,-419,0,0,0,16,73,75,32,34.15,1018.09,1,0
2022-11-02 15:21:58,880,325,-427,0,0,0,17,72,69,32,34.15,1018.09,1,0
2022-11-02 15:21:58,880,325,-427,0,0,0,17,72,69,32,34.15,1018.09,1,0
2022-11-02 15:21:58,880,325,-427,0,0,0,17,72,69,32,34.15,1018.09,1,0
2022-11-02 15:21:58,880,325,-427,0,0,0,17,72,69,32,34.15,1018.09,1,0
2022-11-02 15:21:58,880,325,-427,0,0,0,17,72,69,32,34.15,1018.09,1,0
2022-11-02 15:21:58,868,329,-427,0,1,0,13,72,72,32,34.15,1018.09,1,0
2022-11-02 15:21:58,868,329,-427,0,1,0,13,72,72,32,34.15,1018.09,1,0
2022-11-02 15:21:58,868,329,-427,0,1,0,13,72,72,32,34.15,1018.09,1,0
2022-11-02 15:21:58,868,329,-427,0,1,0,13,72,72,32,34.15,1018.09,1,0
2022-11-02 15:21:58,868,329,-427,0,1,0,13,72,72,32,34.15,1018.09,1,0
2022-11-02 15:21:58,890,324,-421,0,1,0,18,72,70,32,34.15,1018.09,1,0
2022-11-02 15:21:58,890,324,-421,0,1,0,18,72,70,32,34.15,1018.09,1,0
2022-11-02 15:21:58,890,324,-421,0,1,0,18,72,70,32,34.15,1018.09,1,0
2022-11-02 15:21:58,890,324,-421,0,1,0,18,72,70,32,34.15,1018.09,1,0
2022-11-02 15:21:58,890,324,-421,0,1,0,18,72,70,32,34.15,1018.09,1,0
2022-11-02 15:21:58,882,331,-419,0,1,0,13,72,73,32,34.15,1018.14,1,0
2022-11-02 15:21:58,882,331,-419,0,1,0,13,72,73,32,34.15,1018.14,1,0
2022-11-02 15:21:58,882,331,-419,0,1,0,13,72,73,32,34.15,1018.14,1,0
2022-11-02 15:21:58,882,331,-419,0,1,0,13,72,73,32,34.15,1018.14,1,0
2022-11-02 15:21:58,882,331,-419,0,1,0,13,72,73,32,34.15,1018.14,1,0
2022-11-02 15:21:58,882,322,-415,0,2,0,16,74,72,32,34.15,1018.14,1,0
2022-11-02 15:21:58,882,322,-415,0,2,0,16,74,72,32,34.15,1018.14,1,0
2022-11-02 15:21:58,882,322,-415,0,2,0,16,74,72,32,34.15,1018.14,1,0
2022-11-02 15:21:58,882,322,-415,0,2,0,16,74,72,32,34.15,1018.14,1,0
2022-11-02 15:21:58,882,322,-415,0,2,0,16,74,72,32,34.15,1018.14,1,0
2022-11-02 15:21:58,884,316,-406,0,1,0,16,72,70,32,34.15,1018.14,1,0
2022-11-02 15:21:58,884,316,-406,0,1,0,16,72,70,32,34.15,1018.14,1,0
2022-11-02 15:21:58,884,316,-406,0,1,0,16,72,70,32,34.15,1018.14,1,0
2022-11-02 15:21:58,884,316,-406,0,1,0,16,72,70,32,34.15,1018.14,1,0
2022-11-02 15:21:58,884,316,-406,0,1,0,16,72,70,32,34.15,1018.14,1,0
2022-11-02 15:21:58,892,316,-409,0,1,0,16,72,76,32,34.15,1018.14,1,0
2022-11-02 15:21:58,892,316,-409,0,1,0,16,72,76,32,34.15,1018.14,1,0
2022-11-02 15:21:58,892,316,-409,0,1,0,16,72,76,32,34.15,1018.14,1,0
2022-11-02 15:21:58,892,316,-409,0,1,0,16,72,76,32,34.15,1018.14,1,0
2022-11-02 15:21:58,892,316,-409,0,1,0,16,72,76,32,34.15,1018.14,1,0
2022-11-02 15:21:59,890,325,-413,0,1,0,17,73,73,32,34.15,1018.14,1,0
2022-11-02 15:21:59,890,325,-413,0,1,0,17,73,73,32,34.15,1018.14,1,0
2022-11-02 15:21:59,890,325,-413,0,1,0,17,73,73,32,34.15,1018.14,1,0
2022-11-02 15:21:59,890,325,-413,0,1,0,17,73,73,32,34.15,1018.14,1,0
2022-11-02 15:21:59,890,325,-413,0,1,0,17,73,73,32,34.15,1018.14,1,0
2022-11-02 15:21:59,888,322,-419,0,0,0,16,69,77,32,34.15,1018.14,1,0
2022-11-02 15:21:59,888,322,-419,0,0,0,16,69,77,32,34.15,1018.14,1,0
2022-11-02 15:21:59,888,322,-419,0,0,0,16,69,77,32,34.15,1018.14,1,0
2022-11-02 15:21:59,888,322,-419,0,0,0,16,69,77,32,34.15,1018.14,1,0
2022-11-02 15:21:59,888,322,-419,0,0,0,16,69,77,32,34.15,1018.14,1,0
2022-11-02 15:21:59,884,318,-409,0,0,0,17,72,71,32,34.15,1018.14,1,0
2022-11-02 15:21:59,884,318,-409,0,0,0,17,72,71,32,34.15,1018.14,1,0
2022-11-02 15:21:59,884,318,-409,0,0,0,17,72,71,32,34.15,1018.14,1,0
2022-11-02 15:21:59,884,318,-409,0,0,0,17,72,71,32,34.15,1018.14,1,0
2022-11-02 15:21:59,884,318,-409,0,0,0,17,72,71,32,34.15,1018.14,1,0
2022-11-02 15:21:59,888,316,-411,0,0,0,16,72,73,32,34.15,1018.14,1,0
2022-11-02 15:21:59,888,316,-411,0,0,0,16,72,73,32,34.15,1018.14,1,0
2022-11-02 15:21:59,888,316,-411,0,0,0,16,72,73,32,34.15,1018.14,1,0
2022-11-02 15:21:59,888,316,-411,0,0,0,16,72,73,32,34.15,1018.14,1,0
2022-11-02 15:21:59,888,316,-411,0,0,0,16,72,73,32,34.15,1018.14,1,0
2022-11-02 15:21:59,888,324,-406,0,0,0,15,72,74,32,34.15,1018.14,1,0
2022-11-02 15:21:59,888,324,-406,0,0,0,15,72,74,32,34.15,1018.14,1,0
2022-11-02 15:21:59,888,324,-406,0,0,0,15,72,74,32,34.15,1018.14,1,0
2022-11-02 15:21:59,888,324,-406,0,0,0,15,72,74,32,34.15,1018.14,1,0
2022-11-02 15:21:59,888,324,-406,0,0,0,15,72,74,32,34.15,1018.14,1,0
2022-11-02 15:21:59,886,329,-406,0,0,0,14,70,72,32,34.15,1018.14,1,0
2022-11-02 15:21:59,886,329,-406,0,0,0,14,70,72,32,34.15,1018.14,1,0
2022-11-02 15:21:59,886,329,-406,0,0,0,14,70,72,32,34.15,1018.14,1,0
2022-11-02 15:21:59,886,329,-406,0,0,0,14,70,72,32,34.15,1018.14,1,0
2022-11-02 15:21:59,886,329,-406,0,0,0,14,70,72,32,34.15,1018.14,1,0
2022-11-02 15:21:59,880,329,-419,0,0,0,15,74,73,32,34.15,1018.18,1,0
2022-11-02 15:21:59,880,329,-419,0,0,0,15,74,73,32,34.15,1018.18,1,0
2022-11-02 15:21:59,880,329,-419,0,0,0,15,74,73,32,34.15,1018.18,1,0
2022-11-02 15:21:59,880,329,-419,0,0,0,15,74,73,32,34.15,1018.18,1,0
2022-11-02 15:21:59,880,329,-419,0,0,0,15,74,73,32,34.15,1018.18,1,0
2022-11-02 15:21:59,880,318,-417,0,0,0,14,72,73,32,34.15,1018.18,1,0
2022-11-02 15:21:59,880,318,-417,0,0,0,14,72,73,32,34.15,1018.18,1,0
2022-11-02 15:21:59,880,318,-417,0,0,0,14,72,73,32,34.15,1018.18,1,0
2022-11-02 15:21:59,880,318,-417,0,0,0,14,72,73,32,34.15,1018.18,1,0
2022-11-02 15:21:59,880,318,-417,0,0,0,14,72,73,32,34.15,1018.18,1,0
2022-11-02 15:21:59,882,324,-419,0,-1,0,14,70,76,32,34.15,1018.18,1,0
2022-11-02 15:21:59,882,324,-419,0,-1,0,14,70,76,32,34.15,1018.18,1,0
2022-11-02 15:21:59,882,324,-419,0,-1,0,14,70,76,32,34.15,1018.18,1,0
2022-11-02 15:21:59,882,324,-419,0,-1,0,14,70,76,32,34.15,1018.18,1,0
2022-11-02 15:21:59,882,324,-419,0,-1,0,14,70,76,32,34.15,1018.18,1,0
2022-11-02 15:21:59,888,331,-407,0,0,0,17,71,74,32,34.15,1018.18,1,0
2022-11-02 15:21:59,888,331,-407,0,0,0,17,71,74,32,34.15,1018.18,1,0
2022-11-02 15:21:59,888,331,-407,0,0,0,17,71,74,32,34.15,1018.18,1,0
2022-11-02 15:21:59,888,331,-407,0,0,0,17,71,74,32,34.15,1018.18,1,0
2022-11-02 15:21:59,888,331,-407,0,0,0,17,71,74,32,34.15,1018.18,1,0
2022-11-02 15:22:00,870,327,-435,0,-1,0,14,72,76,32,34.15,1018.18,1,0
2022-11-02 15:22:00,870,327,-435,0,-1,0,14,72,76,32,34.15,1018.18,1,0
2022-11-02 15:22:00,870,327,-435,0,-1,0,14,72,76,32,34.15,1018.18,1,0
2022-11-02 15:22:00,870,327,-435,0,-1,0,14,72,76,32,34.15,1018.18,1,0
2022-11-02 15:22:00,870,327,-435,0,-1,0,14,72,76,32,34.15,1018.18,1,0
2022-11-02 15:22:00,876,325,-417,0,0,0,16,74,75,32,34.15,1018.18,1,0
2022-11-02 15:22:00,876,325,-417,0,0,0,16,74,75,32,34.15,1018.18,1,0
2022-11-02 15:22:00,876,325,-417,0,0,0,16,74,75,32,34.15,1018.18,1,0
2022-11-02 15:22:00,876,325,-417,0,0,0,16,74,75,32,34.15,1018.18,1,0
2022-11-02 15:22:00,876,325,-417,0,0,0,16,74,75,32,34.15,1018.18,1,0
2022-11-02 15:22:00,874,331,-419,0,0,0,14,73,76,32,34.15,1018.18,1,0
2022-11-02 15:22:00,874,331,-419,0,0,0,14,73,76,32,34.15,1018.18,1,0
2022-11-02 15:22:00,874,331,-419,0,0,0,14,73,76,32,34.15,1018.18,1,0
2022-11-02 15:22:00,874,331,-419,0,0,0,14,73,76,32,34.15,1018.18,1,0
2022-11-02 15:22:00,874,331,-419,0,0,0,14,73,76,32,34.15,1018.18,1,0
2022-11-02 15:22:00,886,322,-427,0,0,0,15,71,70,32,34.15,1018.18,1,0
2022-11-02 15:22:00,886,322,-427,0,0,0,15,71,70,32,34.15,1018.18,1,0
2022-11-02 15:22:00,886,322,-427,0,0,0,15,71,70,32,34.15,1018.18,1,0
2022-11-02 15:22:00,886,322,-427,0,0,0,15,71,70,32,34.15,1018.18,1,0
2022-11-02 15:22:00,886,322,-427,0,0,0,15,71,70,32,34.15,1018.18,1,0
2022-11-02 15:22:00,880,324,-417,0,1,0,14,72,74,32,34.15,1018.18,1,0
2022-11-02 15:22:00,880,324,-417,0,1,0,14,72,74,32,34.15,1018.18,1,0
2022-11-02 15:22:00,880,324,-417,0,1,0,14,72,74,32,34.15,1018.18,1,0
2022-11-02 15:22:00,880,324,-417,0,1,0,14,72,74,32,34.15,1018.18,1,0
2022-11-02 15:22:00,880,324,-417,0,1,0,14,72,74,32,34.15,1018.18,1,0
2022-11-02 15:22:00,878,324,-413,1,1,0,12,75,72,32,34.15,1018.18,1,0
2022-11-02 15:22:00,878,324,-413,1,1,0,12,75,72,32,34.15,1018.18,1,0
2022-11-02 15:22:00,878,324,-413,1,1,0,12,75,72,32,34.15,1018.18,1,0
2022-11-02 15:22:00,878,324,-413,1,1,0,12,75,72,32,34.15,1018.18,1,0
2022-11-02 15:22:00,878,324,-413,1,1,0,12,75,72,32,34.15,1018.18,1,0
2022-11-02 15:22:00,884,324,-413,0,1,0,14,74,72,32,34.17,1018.15,1,0
2022-11-02 15:22:00,884,324,-413,0,1,0,14,74,72,32,34.17,1018.15,1,0
2022-11-02 15:22:00,884,324,-413,0,1,0,14,74,72,32,34.17,1018.15,1,0
2022-11-02 15:22:00,884,324,-413,0,1,0,14,74,72,32,34.17,1018.15,1,0
2022-11-02 15:22:00,884,324,-413,0,1,0,14,74,72,32,34.17,1018.15,1,0
2022-11-02 15:22:00,886,316,-419,0,1,0,16,72,73,32,34.17,1018.15,1,0
2022-11-02 15:22:00,886,316,-419,0,1,0,16,72,73,32,34.17,1018.15,1,0
2022-11-02 15:22:00,886,316,-419,0,1,0,16,72,73,32,34.17,1018.15,1,0
2022-11-02 15:22:00,886,316,-419,0,1,0,16,72,73,32,34.17,1018.15,1,0
2022-11-02 15:22:00,886,316,-419,0,1,0,16,72,73,32,34.17,1018.15,1,0
2022-11-02 15:22:00,878,324,-421,0,1,0,15,72,72,32,34.17,1018.15,1,0
2022-11-02 15:22:00,878,324,-421,0,1,0,15,72,72,32,34.17,1018.15,1,0
2022-11-02 15:22:00,878,324,-421,0,1,0,15,72,72,32,34.17,1018.15,1,0
2022-11-02 15:22:00,878,324,-421,0,1,0,15,72,72,32,34.17,1018.15,1,0
2022-11-02 15:22:00,878,324,-421,0,1,0,15,72,72,32,34.17,1018.15,1,0
2022-11-02 15:22:00,880,320,-417,0,1,0,17,73,76,32,34.17,1018.15,1,0
2022-11-02 15:22:00,880,320,-417,0,1,0,17,73,76,32,34.17,1018.15,1,0
2022-11-02 15:22:00,880,320,-417,0,1,0,17,73,76,32,34.17,1018.15,1,0
2022-11-02 15:22:00,880,320,-417,0,1,0,17,73,76,32,34.17,1018.15,1,0
2022-11-02 15:22:00,880,320,-417,0,1,0,17,73,76,32,34.17,1018.15,1,0
2022-11-02 15:22:01,888,322,-413,0,1,0,15,73,77,32,34.17,1018.15,1,0
2022-11-02 15:22:01,888,322,-413,0,1,0,15,73,77,32,34.17,1018.15,1,0
2022-11-02 15:22:01,888,322,-413,0,1,0,15,73,77,32,34.17,1018.15,1,0
2022-11-02 15:22:01,888,322,-413,0,1,0,15,73,77,32,34.17,1018.15,1,0
2022-11-02 15:22:01,888,322,-413,0,1,0,15,73,77,32,34.17,1018.15,1,0
2022-11-02 15:22:01,892,327,-413,-1,1,0,16,72,75,32,34.17,1018.15,1,0
2022-11-02 15:22:01,892,327,-413,-1,1,0,16,72,75,32,34.17,1018.15,1,0
2022-11-02 15:22:01,892,327,-413,-1,1,0,16,72,75,32,34.17,1018.15,1,0
2022-11-02 15:22:01,892,327,-413,-1,1,0,16,72,75,32,34.17,1018.15,1,0
2022-11-02 15:22:01,892,327,-413,-1,1,0,16,72,75,32,34.17,1018.15,1,0
2022-11-02 15:22:01,892,320,-402,0,0,0,15,71,74,32,34.17,1018.15,1,0
2022-11-02 15:22:01,892,320,-402,0,0,0,15,71,74,32,34.17,1018.15,1,0
2022-11-02 15:22:01,892,320,-402,0,0,0,15,71,74,32,34.17,1018.15,1,0
2022-11-02 15:22:01,892,320,-402,0,0,0,15,71,74,32,34.17,1018.15,1,0
2022-11-02 15:22:01,892,320,-402,0,0,0,15,71,74,32,34.17,1018.15,1,0
2022-11-02 15:22:01,886,324,-419,0,0,0,13,74,69,32,34.17,1018.15,1,0
2022-11-02 15:22:01,886,324,-419,0,0,0,13,74,69,32,34.17,1018.15,1,0
2022-11-02 15:22:01,886,324,-419,0,0,0,13,74,69,32,34.17,1018.15,1,0
2022-11-02 15:22:01,886,324,-419,0,0,0,13,74,69,32,34.17,1018.15,1,0
2022-11-02 15:22:01,886,324,-419,0,0,0,13,74,69,32,34.17,1018.15,1,0
2022-11-02 15:22:01,882,322,-417,0,0,0,15,73,76,32,34.17,1018.15,1,0
2022-11-02 15:22:01,882,322,-417,0,0,0,15,73,76,32,34.17,1018.15,1,0
2022-11-02 15:22:01,882,322,-417,0,0,0,15,73,76,32,34.17,1018.15,1,0
2022-11-02 15:22:01,882,322,-417,0,0,0,15,73,76,32,34.17,1018.15,1,0
2022-11-02 15:22:01,882,322,-417,0,0,0,15,73,76,32,34.17,1018.15,1,0
2022-11-02 15:22:01,890,322,-407,0,0,0,17,73,73,32,34.17,1018.15,1,0
2022-11-02 15:22:01,890,322,-407,0,0,0,17,73,73,32,34.17,1018.15,1,0
2022-11-02 15:22:01,890,322,-407,0,0,0,17,73,73,32,34.17,1018.15,1,0
2022-11-02 15:22:01,890,322,-407,0,0,0,17,73,73,32,34.17,1018.15,1,0
2022-11-02 15:22:01,890,322,-407,0,0,0,17,73,73,32,34.17,1018.15,1,0
2022-11-02 15:22:01,884,327,-415,-1,0,0,15,71,71,32,34.17,1018.15,1,0
2022-11-02 15:22:01,884,327,-415,-1,0,0,15,71,71,32,34.17,1018.15,1,0
2022-11-02 15:22:01,884,327,-415,-1,0,0,15,71,71,32,34.17,1018.15,1,0
2022-11-02 15:22:01,884,327,-415,-1,0,0,15,71,71,32,34.17,1018.15,1,0
2022-11-02 15:22:01,884,327,-415,-1,0,0,15,71,71,32,34.17,1018.15,1,0
2022-11-02 15:22:01,888,331,-413,-1,0,0,14,74,74,32,34.17,1018.15,1,0
2022-11-02 15:22:01,888,331,-413,-1,0,0,14,74,74,32,34.17,1018.15,1,0
2022-11-02 15:22:01,888,331,-413,-1,0,0,14,74,74,32,34.17,1018.15,1,0
2022-11-02 15:22:01,888,331,-413,-1,0,0,14,74,74,32,34.17,1018.15,1,0
2022-11-02 15:22:01,888,331,-413,-1,0,0,14,74,74,32,34.17,1018.15,1,0
2022-11-02 15:22:01,880,329,-417,0,0,0,16,74,74,32,34.17,1018.15,1,0
2022-11-02 15:22:01,880,329,-417,0,0,0,16,74,74,32,34.17,1018.15,1,0
2022-11-02 15:22:01,880,329,-417,0,0,0,16,74,74,32,34.17,1018.15,1,0
2022-11-02 15:22:01,880,329,-417,0,0,0,16,74,74,32,34.17,1018.15,1,0
2022-11-02 15:22:01,880,329,-417,0,0,0,16,74,74,32,34.17,1018.15,1,0
2022-11-02 15:22:01,874,318,-427,0,0,0,16,74,75,32,34.17,1018.15,1,0
2022-11-02 15:22:01,874,318,-427,0,0,0,16,74,75,32,34.17,1018.15,1,0
2022-11-02 15:22:01,874,318,-427,0,0,0,16,74,75,32,34.17,1018.15,1,0
2022-11-02 15:22:01,874,318,-427,0,0,0,16,74,75,32,34.17,1018.15,1,0
2022-11-02 15:22:01,874,318,-427,0,0,0,16,74,75,32,34.17,1018.15,1,0
2022-11-02 15:22:01,882,320,-413,0,0,0,14,73,73,32,34.17,1018.15,1,0
2022-11-02 15:22:01,882,320,-413,0,0,0,14,73,73,32,34.17,1018.15,1,0
2022-11-02 15:22:01,882,320,-413,0,0,0,14,73,73,32,34.17,1018.15,1,0
2022-11-02 15:22:01,882,320,-413,0,0,0,14,73,73,32,34.17,1018.15,1,0
2022-11-02 15:22:01,882,320,-413,0,0,0,14,73,73,32,34.17,1018.15,1,0
2022-11-02 15:22:02,880,333,-413,0,0,0,16,74,75,32,34.17,1018.15,1,0
2022-11-02 15:22:02,880,333,-413,0,0,0,16,74,75,32,34.17,1018.15,1,0
2022-11-02 15:22:02,880,333,-413,0,0,0,16,74,75,32,34.17,1018.15,1,0
2022-11-02 15:22:02,880,333,-413,0,0,0,16,74,75,32,34.17,1018.15,1,0
2022-11-02 15:22:02,880,333,-413,0,0,0,16,74,75,32,34.17,1018.15,1,0
2022-11-02 15:22:02,884,322,-413,0,0,0,15,73,72,32,34.17,1018.15,1,0
2022-11-02 15:22:02,884,322,-413,0,0,0,15,73,72,32,34.17,1018.15,1,0
2022-11-02 15:22:02,884,322,-413,0,0,0,15,73,72,32,34.17,1018.15,1,0
2022-11-02 15:22:02,884,322,-413,0,0,0,15,73,72,32,34.17,1018.15,1,0
2022-11-02 15:22:02,884,322,-413,0,0,0,15,73,72,32,34.17,1018.15,1,0
2022-11-02 15:22:02,888,327,-413,1,0,0,18,72,74,32,34.17,1018.15,1,0
2022-11-02 15:22:02,888,327,-413,1,0,0,18,72,74,32,34.17,1018.15,1,0
2022-11-02 15:22:02,888,327,-413,1,0,0,18,72,74,32,34.17,1018.15,1,0
2022-11-02 15:22:02,888,327,-413,1,0,0,18,72,74,32,34.17,1018.15,1,0
2022-11-02 15:22:02,888,327,-413,1,0,0,18,72,74,32,34.17,1018.15,1,0
2022-11-02 15:22:02,876,327,-427,0,-1,0,15,72,74,32,34.17,1018.15,1,0
2022-11-02 15:22:02,876,327,-427,0,-1,0,15,72,74,32,34.17,1018.15,1,0
2022-11-02 15:22:02,876,327,-427,0,-1,0,15,72,74,32,34.17,1018.15,1,0
2022-11-02 15:22:02,876,327,-427,0,-1,0,15,72,74,32,34.17,1018.15,1,0
2022-11-02 15:22:02,876,327,-427,0,-1,0,15,72,74,32,34.17,1018.15,1,0
2022-11-02 15:22:02,884,324,-413,0,0,0,16,72,76,32,34.17,1018.15,1,0
2022-11-02 15:22:02,884,324,-413,0,0,0,16,72,76,32,34.17,1018.15,1,0
2022-11-02 15:22:02,884,324,-413,0,0,0,16,72,76,32,34.17,1018.15,1,0
2022-11-02 15:22:02,884,324,-413,0,0,0,16,72,76,32,34.17,1018.15,1,0
2022-11-02 15:22:02,884,324,-413,0,0,0,16,72,76,32,34.17,1018.15,1,0
2022-11-02 15:22:02,886,324,-429,0,0,0,13,76,75,32,34.15,1018.11,1,0
2022-11-02 15:22:02,886,324,-429,0,0,0,13,76,75,32,34.15,1018.11,1,0
2022-11-02 15:22:02,886,324,-429,0,0,0,13,76,75,32,34.15,1018.11,1,0
2022-11-02 15:22:02,886,324,-429,0,0,0,13,76,75,32,34.15,1018.11,1,0
2022-11-02 15:22:02,886,324,-429,0,0,0,13,76,75,32,34.15,1018.11,1,0
2022-11-02 15:22:02,870,331,-427,0,0,0,14,73,70,32,34.15,1018.11,1,0
2022-11-02 15:22:02,870,331,-427,0,0,0,14,73,70,32,34.15,1018.11,1,0
2022-11-02 15:22:02,870,331,-427,0,0,0,14,73,70,32,34.15,1018.11,1,0
2022-11-02 15:22:02,870,331,-427,0,0,0,14,73,70,32,34.15,1018.11,1,0
2022-11-02 15:22:02,870,331,-427,0,0,0,14,73,70,32,34.15,1018.11,1,0
2022-11-02 15:22:02,874,325,-415,0,0,0,15,74,72,32,34.15,1018.11,1,0
2022-11-02 15:22:02,874,325,-415,0,0,0,15,74,72,32,34.15,1018.11,1,0
2022-11-02 15:22:02,874,325,-415,0,0,0,15,74,72,32,34.15,1018.11,1,0
2022-11-02 15:22:02,874,325,-415,0,0,0,15,74,72,32,34.15,1018.11,1,0
2022-11-02 15:22:02,874,325,-415,0,0,0,15,74,72,32,34.15,1018.11,1,0
2022-11-02 15:22:02,882,322,-429,0,0,0,16,72,74,32,34.15,1018.11,1,0
2022-11-02 15:22:02,882,322,-429,0,0,0,16,72,74,32,34.15,1018.11,1,0
2022-11-02 15:22:02,882,322,-429,0,0,0,16,72,74,32,34.15,1018.11,1,0
2022-11-02 15:22:02,882,322,-429,0,0,0,16,72,74,32,34.15,1018.11,1,0
2022-11-02 15:22:02,882,322,-429,0,0,0,16,72,74,32,34.15,1018.11,1,0
2022-11-02 15:22:02,886,320,-423,0,0,0,13,72,72,32,34.15,1018.11,1,0
2022-11-02 15:22:02,886,320,-423,0,0,0,13,72,72,32,34.15,1018.11,1,0
2022-11-02 15:22:02,886,320,-423,0,0,0,13,72,72,32,34.15,1018.11,1,0
2022-11-02 15:22:02,886,320,-423,0,0,0,13,72,72,32,34.15,1018.11,1,0
2022-11-02 15:22:02,886,320,-423,0,0,0,13,72,72,32,34.15,1018.11,1,0
2022-11-02 15:22:03,876,333,-423,0,0,0,15,71,72,32,34.15,1018.11,1,0
2022-11-02 15:22:03,876,333,-423,0,0,0,15,71,72,32,34.15,1018.11,1,0
2022-11-02 15:22:03,876,333,-423,0,0,0,15,71,72,32,34.15,1018.11,1,0
2022-11-02 15:22:03,876,333,-423,0,0,0,15,71,72,32,34.15,1018.11,1,0
2022-11-02 15:22:03,876,333,-423,0,0,0,15,71,72,32,34.15,1018.11,1,0
2022-11-02 15:22:03,878,329,-417,0,0,0,15,72,70,32,34.15,1018.11,1,0
2022-11-02 15:22:03,878,329,-417,0,0,0,15,72,70,32,34.15,1018.11,1,0
2022-11-02 15:22:03,878,329,-417,0,0,0,15,72,70,32,34.15,1018.11,1,0
2022-11-02 15:22:03,878,329,-417,0,0,0,15,72,70,32,34.15,1018.11,1,0
2022-11-02 15:22:03,878,329,-417,0,0,0,15,72,70,32,34.15,1018.11,1,0
2022-11-02 15:22:03,872,324,-433,0,0,0,15,73,75,32,34.15,1018.11,1,0
2022-11-02 15:22:03,872,324,-433,0,0,0,15,73,75,32,34.15,1018.11,1,0
2022-11-02 15:22:03,872,324,-433,0,0,0,15,73,75,32,34.15,1018.11,1,0
2022-11-02 15:22:03,872,324,-433,0,0,0,15,73,75,32,34.15,1018.11,1,0
2022-11-02 15:22:03,872,324,-433,0,0,0,15,73,75,32,34.15,1018.11,1,0
2022-11-02 15:22:03,870,324,-437,0,0,0,14,76,75,32,34.15,1018.11,1,0
2022-11-02 15:22:03,870,324,-437,0,0,0,14,76,75,32,34.15,1018.11,1,0
2022-11-02 15:22:03,870,324,-437,0,0,0,14,76,75,32,34.15,1018.11,1,0
2022-11-02 15:22:03,870,324,-437,0,0,0,14,76,75,32,34.15,1018.11,1,0
2022-11-02 15:22:03,870,324,-437,0,0,0,14,76,75,32,34.15,1018.11,1,0
2022-11-02 15:22:03,882,331,-427,0,0,0,16,71,73,32,34.15,1018.11,1,0
2022-11-02 15:22:03,882,331,-427,0,0,0,16,71,73,32,34.15,1018.11,1,0
2022-11-02 15:22:03,882,331,-427,0,0,0,16,71,73,32,34.15,1018.11,1,0
2022-11-02 15:22:03,882,331,-427,0,0,0,16,71,73,32,34.15,1018.11,1,0
2022-11-02 15:22:03,882,331,-427,0,0,0,16,71,73,32,34.15,1018.11,1,0
2022-11-02 15:22:03,880,324,-421,-1,1,0,18,71,72,32,34.18,1018.18,1,0
2022-11-02 15:22:03,880,324,-421,-1,1,0,18,71,72,32,34.18,1018.18,1,0
2022-11-02 15:22:03,880,324,-421,-1,1,0,18,71,72,32,34.18,1018.18,1,0
2022-11-02 15:22:03,880,324,-421,-1,1,0,18,71,72,32,34.18,1018.18,1,0
2022-11-02 15:22:03,880,324,-421,-1,1,0,18,71,72,32,34.18,1018.18,1,0
2022-11-02 15:22:03,882,331,-421,0,1,0,19,72,78,32,34.18,1018.18,1,0
2022-11-02 15:22:03,882,331,-421,0,1,0,19,72,78,32,34.18,1018.18,1,0
2022-11-02 15:22:03,882,331,-421,0,1,0,19,72,78,32,34.18,1018.18,1,0
2022-11-02 15:22:03,882,331,-421,0,1,0,19,72,78,32,34.18,1018.18,1,0
2022-11-02 15:22:03,882,331,-421,0,1,0,19,72,78,32,34.18,1018.18,1,0
2022-11-02 15:22:03,884,318,-404,0,1,0,17,75,70,32,34.18,1018.18,1,0
2022-11-02 15:22:03,884,318,-404,0,1,0,17,75,70,32,34.18,1018.18,1,0
2022-11-02 15:22:03,884,318,-404,0,1,0,17,75,70,32,34.18,1018.18,1,0
2022-11-02 15:22:03,884,318,-404,0,1,0,17,75,70,32,34.18,1018.18,1,0
2022-11-02 15:22:03,884,318,-404,0,1,0,17,75,70,32,34.18,1018.18,1,0
2022-11-02 15:22:03,892,324,-406,0,1,0,16,72,72,32,34.18,1018.18,1,0
2022-11-02 15:22:03,892,324,-406,0,1,0,16,72,72,32,34.18,1018.18,1,0
2022-11-02 15:22:03,892,324,-406,0,1,0,16,72,72,32,34.18,1018.18,1,0
2022-11-02 15:22:03,892,324,-406,0,1,0,16,72,72,32,34.18,1018.18,1,0
2022-11-02 15:22:03,892,324,-406,0,1,0,16,72,72,32,34.18,1018.18,1,0
2022-11-02 15:22:03,882,324,-419,1,0,0,18,73,73,32,34.18,1018.18,1,0
2022-11-02 15:22:03,882,324,-419,1,0,0,18,73,73,32,34.18,1018.18,1,0
2022-11-02 15:22:03,882,324,-419,1,0,0,18,73,73,32,34.18,1018.18,1,0
2022-11-02 15:22:03,882,324,-419,1,0,0,18,73,73,32,34.18,1018.18,1,0
2022-11-02 15:22:03,882,324,-419,1,0,0,18,73,73,32,34.18,1018.18,1,0
2022-11-02 15:22:04,878,327,-409,0,-1,0,17,74,75,32,34.18,1018.18,1,0
2022-11-02 15:22:04,878,327,-409,0,-1,0,17,74,75,32,34.18,1018.18,1,0
2022-11-02 15:22:04,878,327,-409,0,-1,0,17,74,75,32,34.18,1018.18,1,0
2022-11-02 15:22:04,878,327,-409,0,-1,0,17,74,75,32,34.18,1018.18,1,0
2022-11-02 15:22:04,878,327,-409,0,-1,0,17,74,75,32,34.18,1018.18,1,0
2022-11-02 15:22:04,880,333,-427,0,0,0,15,73,72,32,34.18,1018.18,1,0
2022-11-02 15:22:04,880,333,-427,0,0,0,15,73,72,32,34.18,1018.18,1,0
2022-11-02 15:22:04,880,333,-427,0,0,0,15,73,72,32,34.18,1018.18,1,0
2022-11-02 15:22:04,880,333,-427,0,0,0,15,73,72,32,34.18,1018.18,1,0
2022-11-02 15:22:04,880,333,-427,0,0,0,15,73,72,32,34.18,1018.18,1,0
2022-11-02 15:22:04,868,318,-435,0,0,0,17,72,73,32,34.18,1018.18,1,0
2022-11-02 15:22:04,868,318,-435,0,0,0,17,72,73,32,34.18,1018.18,1,0
2022-11-02 15:22:04,868,318,-435,0,0,0,17,72,73,32,34.18,1018.18,1,0
2022-11-02 15:22:04,868,318,-435,0,0,0,17,72,73,32,34.18,1018.18,1,0
2022-11-02 15:22:04,868,318,-435,0,0,0,17,72,73,32,34.18,1018.18,1,0
2022-11-02 15:22:04,886,331,-429,-2,1,0,16,74,72,32,34.18,1018.18,1,0
2022-11-02 15:22:04,886,331,-429,-2,1,0,16,74,72,32,34.18,1018.18,1,0
2022-11-02 15:22:04,886,331,-429,-2,1,0,16,74,72,32,34.18,1018.18,1,0
2022-11-02 15:22:04,886,331,-429,-2,1,0,16,74,72,32,34.18,1018.18,1,0
2022-11-02 15:22:04,886,331,-429,-2,1,0,16,74,72,32,34.18,1018.18,1,0
2022-11-02 15:22:04,880,327,-406,2,0,-1,14,74,76,32,34.18,1018.18,1,0
2022-11-02 15:22:04,880,327,-406,2,0,-1,14,74,76,32,34.18,1018.18,1,0
2022-11-02 15:22:04,880,327,-406,2,0,-1,14,74,76,32,34.18,1018.18,1,0
2022-11-02 15:22:04,880,327,-406,2,0,-1,14,74,76,32,34.18,1018.18,1,0
2022-11-02 15:22:04,880,327,-406,2,0,-1,14,74,76,32,34.18,1018.18,1,0
2022-11-02 15:22:04,888,333,-435,2,0,0,17,73,69,32.1,34.18,1018.21,1,0
2022-11-02 15:22:04,888,333,-435,2,0,0,17,73,69,32.1,34.18,1018.21,1,0
2022-11-02 15:22:04,888,333,-435,2,0,0,17,73,69,32.1,34.18,1018.21,1,0
2022-11-02 15:22:04,888,333,-435,2,0,0,17,73,69,32.1,34.18,1018.21,1,0
2022-11-02 15:22:04,888,333,-435,2,0,0,17,73,69,32.1,34.18,1018.21,1,0
2022-11-02 15:22:04,880,320,-413,0,0,0,18,71,77,32.1,34.18,1018.21,1,0
2022-11-02 15:22:04,880,320,-413,0,0,0,18,71,77,32.1,34.18,1018.21,1,0
2022-11-02 15:22:04,880,320,-413,0,0,0,18,71,77,32.1,34.18,1018.21,1,0
2022-11-02 15:22:04,880,320,-413,0,0,0,18,71,77,32.1,34.18,1018.21,1,0
2022-11-02 15:22:04,880,320,-413,0,0,0,18,71,77,32.1,34.18,1018.21,1,0
2022-11-02 15:22:04,882,322,-417,0,0,0,18,70,71,32.1,34.18,1018.21,1,0
2022-11-02 15:22:04,882,322,-417,0,0,0,18,70,71,32.1,34.18,1018.21,1,0
2022-11-02 15:22:04,882,322,-417,0,0,0,18,70,71,32.1,34.18,1018.21,1,0
2022-11-02 15:22:04,882,322,-417,0,0,0,18,70,71,32.1,34.18,1018.21,1,0
2022-11-02 15:22:04,882,322,-417,0,0,0,18,70,71,32.1,34.18,1018.21,1,0
2022-11-02 15:22:04,888,316,-406,-2,0,0,17,72,72,32.1,34.18,1018.21,1,0
2022-11-02 15:22:04,888,316,-406,-2,0,0,17,72,72,32.1,34.18,1018.21,1,0
2022-11-02 15:22:04,888,316,-406,-2,0,0,17,72,72,32.1,34.18,1018.21,1,0
2022-11-02 15:22:04,888,316,-406,-2,0,0,17,72,72,32.1,34.18,1018.21,1,0
2022-11-02 15:22:04,888,316,-406,-2,0,0,17,72,72,32.1,34.18,1018.21,1,0
2022-11-02 15:22:04,880,327,-427,0,-1,0,15,73,73,32.1,34.18,1018.21,1,0
2022-11-02 15:22:04,880,327,-427,0,-1,0,15,73,73,32.1,34.18,1018.21,1,0
2022-11-02 15:22:04,880,327,-427,0,-1,0,15,73,73,32.1,34.18,1018.21,1,0
2022-11-02 15:22:04,880,327,-427,0,-1,0,15,73,73,32.1,34.18,1018.21,1,0
2022-11-02 15:22:04,880,327,-427,0,-1,0,15,73,73,32.1,34.18,1018.21,1,0
2022-11-02 15:22:05,874,324,-425,0,0,0,17,72,71,32.1,34.18,1018.21,1,0
2022-11-02 15:22:05,874,324,-425,0,0,0,17,72,71,32.1,34.18,1018.21,1,0
2022-11-02 15:22:05,874,324,-425,0,0,0,17,72,71,32.1,34.18,1018.21,1,0
2022-11-02 15:22:05,874,324,-425,0,0,0,17,72,71,32.1,34.18,1018.21,1,0
2022-11-02 15:22:05,874,324,-425,0,0,0,17,72,71,32.1,34.18,1018.21,1,0
2022-11-02 15:22:05,882,327,-427,0,0,0,17,70,72,32.1,34.18,1018.21,1,0
2022-11-02 15:22:05,882,327,-427,0,0,0,17,70,72,32.1,34.18,1018.21,1,0
2022-11-02 15:22:05,882,327,-427,0,0,0,17,70,72,32.1,34.18,1018.21,1,0
2022-11-02 15:22:05,882,327,-427,0,0,0,17,70,72,32.1,34.18,1018.21,1,0
2022-11-02 15:22:05,882,327,-427,0,0,0,17,70,72,32.1,34.18,1018.21,1,0
2022-11-02 15:22:05,882,322,-431,0,0,0,14,74,75,32.1,34.18,1018.21,1,0
2022-11-02 15:22:05,882,322,-431,0,0,0,14,74,75,32.1,34.18,1018.21,1,0
2022-11-02 15:22:05,882,322,-431,0,0,0,14,74,75,32.1,34.18,1018.21,1,0
2022-11-02 15:22:05,882,322,-431,0,0,0,14,74,75,32.1,34.18,1018.21,1,0
2022-11-02 15:22:05,882,322,-431,0,0,0,14,74,75,32.1,34.18,1018.21,1,0
2022-11-02 15:22:05,872,324,-433,-1,0,0,16,75,72,32.1,34.18,1018.21,1,0
2022-11-02 15:22:05,872,324,-433,-1,0,0,16,75,72,32.1,34.18,1018.21,1,0
2022-11-02 15:22:05,872,324,-433,-1,0,0,16,75,72,32.1,34.18,1018.21,1,0
2022-11-02 15:22:05,872,324,-433,-1,0,0,16,75,72,32.1,34.18,1018.21,1,0
2022-11-02 15:22:05,872,324,-433,-1,0,0,16,75,72,32.1,34.18,1018.21,1,0
2022-11-02 15:22:05,872,335,-437,0,0,0,13,74,76,32.1,34.18,1018.21,1,0
2022-11-02 15:22:05,872,335,-437,0,0,0,13,74,76,32.1,34.18,1018.21,1,0
2022-11-02 15:22:05,872,335,-437,0,0,0,13,74,76,32.1,34.18,1018.21,1,0
2022-11-02 15:22:05,872,335,-437,0,0,0,13,74,76,32.1,34.18,1018.21,1,0
2022-11-02 15:22:05,872,335,-437,0,0,0,13,74,76,32.1,34.18,1018.21,1,0
2022-11-02 15:22:05,872,322,-437,0,0,0,14,73,74,32.1,34.19,1018.28,1,0
2022-11-02 15:22:05,872,322,-437,0,0,0,14,73,74,32.1,34.19,1018.28,1,0
2022-11-02 15:22:05,872,322,-437,0,0,0,14,73,74,32.1,34.19,1018.28,1,0
2022-11-02 15:22:05,872,322,-437,0,0,0,14,73,74,32.1,34.19,1018.28,1,0
2022-11-02 15:22:05,872,322,-437,0,0,0,14,73,74,32.1,34.19,1018.28,1,0
2022-11-02 15:22:05,880,325,-417,0,0,0,18,75,73,32.1,34.19,1018.28,1,0
2022-11-02 15:22:05,880,325,-417,0,0,0,18,75,73,32.1,34.19,1018.28,1,0
2022-11-02 15:22:05,880,325,-417,0,0,0,18,75,73,32.1,34.19,1018.28,1,0
2022-11-02 15:22:05,880,325,-417,0,0,0,18,75,73,32.1,34.19,1018.28,1,0
2022-11-02 15:22:05,880,325,-417,0,0,0,18,75,73,32.1,34.19,1018.28,1,0
2022-11-02 15:22:05,888,329,-429,0,1,0,13,71,71,32.1,34.19,1018.28,1,0
2022-11-02 15:22:05,888,329,-429,0,1,0,13,71,71,32.1,34.19,1018.28,1,0
2022-11-02 15:22:05,888,329,-429,0,1,0,13,71,71,32.1,34.19,1018.28,1,0
2022-11-02 15:22:05,888,329,-429,0,1,0,13,71,71,32.1,34.19,1018.28,1,0
2022-11-02 15:22:05,888,329,-429,0,1,0,13,71,71,32.1,34.19,1018.28,1,0
2022-11-02 15:22:05,880,329,-423,0,1,0,16,73,75,32.1,34.19,1018.28,1,0
2022-11-02 15:22:05,880,329,-423,0,1,0,16,73,75,32.1,34.19,1018.28,1,0
2022-11-02 15:22:05,880,329,-423,0,1,0,16,73,75,32.1,34.19,1018.28,1,0
2022-11-02 15:22:05,880,329,-423,0,1,0,16,73,75,32.1,34.19,1018.28,1,0
2022-11-02 15:22:05,880,329,-423,0,1,0,16,73,75,32.1,34.19,1018.28,1,0
2022-11-02 15:22:05,880,324,-421,0,0,1,14,74,73,32.1,34.19,1018.28,1,0
2022-11-02 15:22:05,880,324,-421,0,0,1,14,74,73,32.1,34.19,1018.28,1,0
2022-11-02 15:22:05,880,324,-421,0,0,1,14,74,73,32.1,34.19,1018.28,1,0
2022-11-02 15:22:05,880,324,-421,0,0,1,14,74,73,32.1,34.19,1018.28,1,0
2022-11-02 15:22:05,880,324,-421,0,0,1,14,74,73,32.1,34.19,1018.28,1,0
2022-11-02 15:22:06,878,320,-425,0,0,1,16,71,75,32.1,34.19,1018.28,1,0
2022-11-02 15:22:06,878,320,-425,0,0,1,16,71,75,32.1,34.19,1018.28,1,0
2022-11-02 15:22:06,878,320,-425,0,0,1,16,71,75,32.1,34.19,1018.28,1,0
2022-11-02 15:22:06,878,320,-425,0,0,1,16,71,75,32.1,34.19,1018.28,1,0
2022-11-02 15:22:06,878,320,-425,0,0,1,16,71,75,32.1,34.19,1018.28,1,0
2022-11-02 15:22:06,884,320,-423,0,1,0,18,72,72,32.1,34.19,1018.28,1,0
2022-11-02 15:22:06,884,320,-423,0,1,0,18,72,72,32.1,34.19,1018.28,1,0
2022-11-02 15:22:06,884,320,-423,0,1,0,18,72,72,32.1,34.19,1018.28,1,0
2022-11-02 15:22:06,884,320,-423,0,1,0,18,72,72,32.1,34.19,1018.28,1,0
2022-11-02 15:22:06,884,320,-423,0,1,0,18,72,72,32.1,34.19,1018.28,1,0
2022-11-02 15:22:06,884,320,-411,0,0,0,16,74,76,32.1,34.19,1018.28,1,0
2022-11-02 15:22:06,884,320,-411,0,0,0,16,74,76,32.1,34.19,1018.28,1,0
