Time,Ax,Ay,Az,Gx,Gy,Gz,Mx,My,Mz,Temp,Humidity,Pressure,Mic,Light
2022-11-02 15:37:41,989,-3,-216,0,-1,0,6,40,-12,33,35.54,1018.04,1,0
2022-11-02 15:37:41,989,-3,-216,0,-1,0,6,40,-12,33,35.54,1018.04,1,0
2022-11-02 15:37:41,989,-3,-216,0,-1,0,6,40,-12,33,35.54,1018.04,1,0
2022-11-02 15:37:41,989,-3,-216,0,-1,0,6,40,-12,33,35.54,1018.04,1,0
2022-11-02 15:37:41,989,-3,-216,0,-1,0,6,40,-12,33,35.54,1018.04,1,0
2022-11-02 15:37:41,989,-3,-216,0,-1,0,6,40,-12,33,35.54,1018.04,1,0
2022-11-02 15:37:41,989,-3,-216,0,-1,0,6,40,-12,33,35.54,1018.04,1,0
2022-11-02 15:37:41,989,-3,-216,0,-1,0,6,40,-12,33,35.54,1018.04,1,0
2022-11-02 15:37:41,989,-3,-216,0,-1,0,6,40,-12,33,35.54,1018.04,1,0
2022-11-02 15:37:41,1005,-3,-220,0,0,0,6,39,-13,33,35.54,1018.04,1,0
2022-11-02 15:37:41,1005,-3,-220,0,0,0,6,39,-13,33,35.54,1018.04,1,0
2022-11-02 15:37:41,1005,-3,-220,0,0,0,6,39,-13,33,35.54,1018.04,1,0
2022-11-02 15:37:41,1005,-3,-220,0,0,0,6,39,-13,33,35.54,1018.04,1,0
2022-11-02 15:37:41,1005,-3,-220,0,0,0,6,39,-13,33,35.54,1018.04,1,0
2022-11-02 15:37:41,1005,-3,-220,0,0,0,6,39,-13,33,35.54,1018.04,1,0
2022-11-02 15:37:41,1005,-3,-220,0,0,0,6,39,-13,33,35.54,1018.04,1,0
2022-11-02 15:37:41,1005,-3,-220,0,0,0,6,39,-13,33,35.54,1018.04,1,0
2022-11-02 15:37:41,1005,-3,-220,0,0,0,6,39,-13,33,35.54,1018.04,1,0
2022-11-02 15:37:41,999,19,-218,0,0,0,3,38,-12,33,35.54,1018.04,1,0
2022-11-02 15:37:41,999,19,-218,0,0,0,3,38,-12,33,35.54,1018.04,1,0
2022-11-02 15:37:41,999,19,-218,0,0,0,3,38,-12,33,35.54,1018.04,1,0
2022-11-02 15:37:41,999,19,-218,0,0,0,3,38,-12,33,35.54,1018.04,1,0
2022-11-02 15:37:41,999,19,-218,0,0,0,3,38,-12,33,35.54,1018.04,1,0
2022-11-02 15:37:41,999,19,-218,0,0,0,3,38,-12,33,35.54,1018.04,1,0
2022-11-02 15:37:41,999,19,-218,0,0,0,3,38,-12,33,35.54,1018.04,1,0
2022-11-02 15:37:41,999,19,-218,0,0,0,3,38,-12,33,35.54,1018.04,1,0
2022-11-02 15:37:41,999,19,-218,0,0,0,3,38,-12,33,35.54,1018.04,1,0
2022-11-02 15:37:41,1001,3,-224,0,0,0,2,42,-13,33,35.54,1018.04,1,0
2022-11-02 15:37:41,1001,3,-224,0,0,0,2,42,-13,33,35.54,1018.04,1,0
2022-11-02 15:37:41,1001,3,-224,0,0,0,2,42,-13,33,35.54,1018.04,1,0
2022-11-02 15:37:41,1001,3,-224,0,0,0,2,42,-13,33,35.54,1018.04,1,0
2022-11-02 15:37:41,1001,3,-224,0,0,0,2,42,-13,33,35.54,1018.04,1,0
2022-11-02 15:37:41,1001,3,-224,0,0,0,2,42,-13,33,35.54,1018.04,1,0
2022-11-02 15:37:41,1001,3,-224,0,0,0,2,42,-13,33,35.54,1018.04,1,0
2022-11-02 15:37:41,1001,3,-224,0,0,0,2,42,-13,33,35.54,1018.04,1,0
2022-11-02 15:37:41,1001,3,-224,0,0,0,2,42,-13,33,35.54,1018.04,1,0
2022-11-02 15:37:41,997,1,-220,0,0,0,4,41,-16,33,35.54,1018.04,1,0
2022-11-02 15:37:41,997,1,-220,0,0,0,4,41,-16,33,35.54,1018.04,1,0
2022-11-02 15:37:41,997,1,-220,0,0,0,4,41,-16,33,35.54,1018.04,1,0
2022-11-02 15:37:41,997,1,-220,0,0,0,4,41,-16,33,35.54,1018.04,1,0
2022-11-02 15:37:41,997,1,-220,0,0,0,4,41,-16,33,35.54,1018.04,1,0
2022-11-02 15:37:41,997,1,-220,0,0,0,4,41,-16,33,35.54,1018.04,1,0
2022-11-02 15:37:41,997,1,-220,0,0,0,4,41,-16,33,35.54,1018.04,1,0
2022-11-02 15:37:41,997,1,-220,0,0,0,4,41,-16,33,35.54,1018.04,1,0
2022-11-02 15:37:41,997,1,-220,0,0,0,4,41,-16,33,35.54,1018.04,1,0
2022-11-02 15:37:41,995,0,-214,0,0,0,4,40,-10,33,35.54,1018.04,1,0
2022-11-02 15:37:41,995,0,-214,0,0,0,4,40,-10,33,35.54,1018.04,1,0
2022-11-02 15:37:41,995,0,-214,0,0,0,4,40,-10,33,35.54,1018.04,1,0
2022-11-02 15:37:41,995,0,-214,0,0,0,4,40,-10,33,35.54,1018.04,1,0
2022-11-02 15:37:41,995,0,-214,0,0,0,4,40,-10,33,35.54,1018.04,1,0
2022-11-02 15:37:41,995,0,-214,0,0,0,4,40,-10,33,35.54,1018.04,1,0
2022-11-02 15:37:41,995,0,-214,0,0,0,4,40,-10,33,35.54,1018.04,1,0
2022-11-02 15:37:41,995,0,-214,0,0,0,4,40,-10,33,35.54,1018.04,1,0
2022-11-02 15:37:41,995,0,-214,0,0,0,4,40,-10,33,35.54,1018.04,1,0
2022-11-02 15:37:41,1001,7,-234,0,0,0,4,40,-15,33,35.54,1018.04,1,0
2022-11-02 15:37:41,1001,7,-234,0,0,0,4,40,-15,33,35.54,1018.04,1,0
2022-11-02 15:37:41,1001,7,-234,0,0,0,4,40,-15,33,35.54,1018.04,1,0
2022-11-02 15:37:41,1001,7,-234,0,0,0,4,40,-15,33,35.54,1018.04,1,0
2022-11-02 15:37:41,1001,7,-234,0,0,0,4,40,-15,33,35.54,1018.04,1,0
2022-11-02 15:37:41,1001,7,-234,0,0,0,4,40,-15,33,35.54,1018.04,1,0
2022-11-02 15:37:41,1001,7,-234,0,0,0,4,40,-15,33,35.54,1018.04,1,0
2022-11-02 15:37:41,1001,7,-234,0,0,0,4,40,-15,33,35.54,1018.04,1,0
2022-11-02 15:37:41,1001,7,-234,0,0,0,4,40,-15,33,35.54,1018.04,1,0
2022-11-02 15:37:42,1001,15,-228,0,0,0,3,40,-11,33,35.54,1018.04,1,0
2022-11-02 15:37:42,1001,15,-228,0,0,0,3,40,-11,33,35.54,1018.04,1,0
2022-11-02 15:37:42,1001,15,-228,0,0,0,3,40,-11,33,35.54,1018.04,1,0
2022-11-02 15:37:42,1001,15,-228,0,0,0,3,40,-11,33,35.54,1018.04,1,0
2022-11-02 15:37:42,1001,15,-228,0,0,0,3,40,-11,33,35.54,1018.04,1,0
2022-11-02 15:37:42,1001,15,-228,0,0,0,3,40,-11,33,35.54,1018.04,1,0
2022-11-02 15:37:42,1001,15,-228,0,0,0,3,40,-11,33,35.54,1018.04,1,0
2022-11-02 15:37:42,1001,15,-228,0,0,0,3,40,-11,33,35.54,1018.04,1,0
2022-11-02 15:37:42,1001,15,-228,0,0,0,3,40,-11,33,35.54,1018.04,1,0
2022-11-02 15:37:42,999,15,-224,0,0,0,2,38,-14,33,35.54,1018.04,1,0
2022-11-02 15:37:42,999,15,-224,0,0,0,2,38,-14,33,35.54,1018.04,1,0
2022-11-02 15:37:42,999,15,-224,0,0,0,2,38,-14,33,35.54,1018.04,1,0
2022-11-02 15:37:42,999,15,-224,0,0,0,2,38,-14,33,35.54,1018.04,1,0
2022-11-02 15:37:42,999,15,-224,0,0,0,2,38,-14,33,35.54,1018.04,1,0
2022-11-02 15:37:42,999,15,-224,0,0,0,2,38,-14,33,35.54,1018.04,1,0
2022-11-02 15:37:42,999,15,-224,0,0,0,2,38,-14,33,35.54,1018.04,1,0
2022-11-02 15:37:42,999,15,-224,0,0,0,2,38,-14,33,35.54,1018.04,1,0
2022-11-02 15:37:42,999,15,-224,0,0,0,2,38,-14,33,35.54,1018.04,1,0
2022-11-02 15:37:42,1001,11,-226,0,1,0,5,41,-10,34.2,35.63,1018.14,0,0
2022-11-02 15:37:42,1001,11,-226,0,1,0,5,41,-10,34.2,35.63,1018.14,0,0
2022-11-02 15:37:42,1001,11,-226,0,1,0,5,41,-10,34.2,35.63,1018.14,0,0
2022-11-02 15:37:42,1001,11,-226,0,1,0,5,41,-10,34.2,35.63,1018.14,0,0
2022-11-02 15:37:42,1001,11,-226,0,1,0,5,41,-10,34.2,35.63,1018.14,0,0
2022-11-02 15:37:42,1001,11,-226,0,1,0,5,41,-10,34.2,35.63,1018.14,0,0
2022-11-02 15:37:42,1001,11,-226,0,1,0,5,41,-10,34.2,35.63,1018.14,0,0
2022-11-02 15:37:42,1001,11,-226,0,1,0,5,41,-10,34.2,35.63,1018.14,0,0
2022-11-02 15:37:42,1001,11,-226,0,1,0,5,41,-10,34.2,35.63,1018.14,0,0
2022-11-02 15:37:42,999,5,-214,0,0,0,4,39,-9,34.2,35.63,1018.14,0,0
2022-11-02 15:37:42,999,5,-214,0,0,0,4,39,-9,34.2,35.63,1018.14,0,0
2022-11-02 15:37:42,999,5,-214,0,0,0,4,39,-9,34.2,35.63,1018.14,0,0
2022-11-02 15:37:42,999,5,-214,0,0,0,4,39,-9,34.2,35.63,1018.14,0,0
2022-11-02 15:37:42,999,5,-214,0,0,0,4,39,-9,34.2,35.63,1018.14,0,0
2022-11-02 15:37:42,999,5,-214,0,0,0,4,39,-9,34.2,35.63,1018.14,0,0
2022-11-02 15:37:42,999,5,-214,0,0,0,4,39,-9,34.2,35.63,1018.14,0,0
2022-11-02 15:37:42,999,5,-214,0,0,0,4,39,-9,34.2,35.63,1018.14,0,0
2022-11-02 15:37:42,999,5,-214,0,0,0,4,39,-9,34.2,35.63,1018.14,0,0
2022-11-02 15:37:42,1007,9,-210,0,0,0,6,41,-15,34.2,35.63,1018.14,0,0
2022-11-02 15:37:42,1007,9,-210,0,0,0,6,41,-15,34.2,35.63,1018.14,0,0
2022-11-02 15:37:42,1007,9,-210,0,0,0,6,41,-15,34.2,35.63,1018.14,0,0
2022-11-02 15:37:42,1007,9,-210,0,0,0,6,41,-15,34.2,35.63,1018.14,0,0
2022-11-02 15:37:42,1007,9,-210,0,0,0,6,41,-15,34.2,35.63,1018.14,0,0
2022-11-02 15:37:42,1007,9,-210,0,0,0,6,41,-15,34.2,35.63,1018.14,0,0
2022-11-02 15:37:42,1007,9,-210,0,0,0,6,41,-15,34.2,35.63,1018.14,0,0
2022-11-02 15:37:42,1007,9,-210,0,0,0,6,41,-15,34.2,35.63,1018.14,0,0
2022-11-02 15:37:42,1007,9,-210,0,0,0,6,41,-15,34.2,35.63,1018.14,0,0
2022-11-02 15:37:42,999,5,-210,0,0,0,3,39,-13,34.2,35.63,1018.14,0,0
2022-11-02 15:37:42,999,5,-210,0,0,0,3,39,-13,34.2,35.63,1018.14,0,0
2022-11-02 15:37:42,999,5,-210,0,0,0,3,39,-13,34.2,35.63,1018.14,0,0
2022-11-02 15:37:42,999,5,-210,0,0,0,3,39,-13,34.2,35.63,1018.14,0,0
2022-11-02 15:37:42,999,5,-210,0,0,0,3,39,-13,34.2,35.63,1018.14,0,0
2022-11-02 15:37:42,999,5,-210,0,0,0,3,39,-13,34.2,35.63,1018.14,0,0
2022-11-02 15:37:42,999,5,-210,0,0,0,3,39,-13,34.2,35.63,1018.14,0,0
2022-11-02 15:37:42,999,5,-210,0,0,0,3,39,-13,34.2,35.63,1018.14,0,0
2022-11-02 15:37:42,999,5,-210,0,0,0,3,39,-13,34.2,35.63,1018.14,0,0
2022-11-02 15:37:42,999,5,-216,0,0,0,5,43,-12,34.2,35.63,1018.14,0,0
2022-11-02 15:37:42,999,5,-216,0,0,0,5,43,-12,34.2,35.63,1018.14,0,0
2022-11-02 15:37:42,999,5,-216,0,0,0,5,43,-12,34.2,35.63,1018.14,0,0
2022-11-02 15:37:42,999,5,-216,0,0,0,5,43,-12,34.2,35.63,1018.14,0,0
2022-11-02 15:37:42,999,5,-216,0,0,0,5,43,-12,34.2,35.63,1018.14,0,0
2022-11-02 15:37:42,999,5,-216,0,0,0,5,43,-12,34.2,35.63,1018.14,0,0
2022-11-02 15:37:42,999,5,-216,0,0,0,5,43,-12,34.2,35.63,1018.14,0,0
2022-11-02 15:37:42,999,5,-216,0,0,0,5,43,-12,34.2,35.63,1018.14,0,0
2022-11-02 15:37:42,999,5,-216,0,0,0,5,43,-12,34.2,35.63,1018.14,0,0
2022-11-02 15:37:42,997,19,-210,0,0,0,4,39,-13,34.2,35.63,1018.14,0,0
2022-11-02 15:37:42,997,19,-210,0,0,0,4,39,-13,34.2,35.63,1018.14,0,0
2022-11-02 15:37:42,997,19,-210,0,0,0,4,39,-13,34.2,35.63,1018.14,0,0
2022-11-02 15:37:42,997,19,-210,0,0,0,4,39,-13,34.2,35.63,1018.14,0,0
2022-11-02 15:37:42,997,19,-210,0,0,0,4,39,-13,34.2,35.63,1018.14,0,0
2022-11-02 15:37:42,997,19,-210,0,0,0,4,39,-13,34.2,35.63,1018.14,0,0
2022-11-02 15:37:42,997,19,-210,0,0,0,4,39,-13,34.2,35.63,1018.14,0,0
2022-11-02 15:37:42,997,19,-210,0,0,0,4,39,-13,34.2,35.63,1018.14,0,0
2022-11-02 15:37:42,997,19,-210,0,0,0,4,39,-13,34.2,35.63,1018.14,0,0
2022-11-02 15:37:42,993,9,-230,0,0,0,4,41,-12,34.2,35.63,1018.14,0,0
2022-11-02 15:37:42,993,9,-230,0,0,0,4,41,-12,34.2,35.63,1018.14,0,0
2022-11-02 15:37:42,993,9,-230,0,0,0,4,41,-12,34.2,35.63,1018.14,0,0
2022-11-02 15:37:42,993,9,-230,0,0,0,4,41,-12,34.2,35.63,1018.14,0,0
2022-11-02 15:37:42,993,9,-230,0,0,0,4,41,-12,34.2,35.63,1018.14,0,0
2022-11-02 15:37:42,993,9,-230,0,0,0,4,41,-12,34.2,35.63,1018.14,0,0
2022-11-02 15:37:42,993,9,-230,0,0,0,4,41,-12,34.2,35.63,1018.14,0,0
2022-11-02 15:37:42,993,9,-230,0,0,0,4,41,-12,34.2,35.63,1018.14,0,0
2022-11-02 15:37:42,993,9,-230,0,0,0,4,41,-12,34.2,35.63,1018.14,0,0
2022-11-02 15:37:42,999,13,-216,0,0,0,4,40,-10,34.2,35.63,1018.14,0,0
2022-11-02 15:37:42,999,13,-216,0,0,0,4,40,-10,34.2,35.63,1018.14,0,0
2022-11-02 15:37:42,999,13,-216,0,0,0,4,40,-10,34.2,35.63,1018.14,0,0
2022-11-02 15:37:42,999,13,-216,0,0,0,4,40,-10,34.2,35.63,1018.14,0,0
2022-11-02 15:37:42,999,13,-216,0,0,0,4,40,-10,34.2,35.63,1018.14,0,0
2022-11-02 15:37:42,999,13,-216,0,0,0,4,40,-10,34.2,35.63,1018.14,0,0
2022-11-02 15:37:42,999,13,-216,0,0,0,4,40,-10,34.2,35.63,1018.14,0,0
2022-11-02 15:37:42,999,13,-216,0,0,0,4,40,-10,34.2,35.63,1018.14,0,0
2022-11-02 15:37:42,999,13,-216,0,0,0,4,40,-10,34.2,35.63,1018.14,0,0
2022-11-02 15:37:43,997,7,-212,0,0,0,5,40,-13,34.2,35.63,1018.14,0,0
2022-11-02 15:37:43,997,7,-212,0,0,0,5,40,-13,34.2,35.63,1018.14,0,0
2022-11-02 15:37:43,997,7,-212,0,0,0,5,40,-13,34.2,35.63,1018.14,0,0
2022-11-02 15:37:43,997,7,-212,0,0,0,5,40,-13,34.2,35.63,1018.14,0,0
2022-11-02 15:37:43,997,7,-212,0,0,0,5,40,-13,34.2,35.63,1018.14,0,0
2022-11-02 15:37:43,997,7,-212,0,0,0,5,40,-13,34.2,35.63,1018.14,0,0
2022-11-02 15:37:43,997,7,-212,0,0,0,5,40,-13,34.2,35.63,1018.14,0,0
2022-11-02 15:37:43,997,7,-212,0,0,0,5,40,-13,34.2,35.63,1018.14,0,0
2022-11-02 15:37:43,997,7,-212,0,0,0,5,40,-13,34.2,35.63,1018.14,0,0
2022-11-02 15:37:43,1001,17,-224,0,0,0,5,41,-14,34.2,35.63,1018.14,0,0
2022-11-02 15:37:43,1001,17,-224,0,0,0,5,41,-14,34.2,35.63,1018.14,0,0
2022-11-02 15:37:43,1001,17,-224,0,0,0,5,41,-14,34.2,35.63,1018.14,0,0
2022-11-02 15:37:43,1001,17,-224,0,0,0,5,41,-14,34.2,35.63,1018.14,0,0
2022-11-02 15:37:43,1001,17,-224,0,0,0,5,41,-14,34.2,35.63,1018.14,0,0
2022-11-02 15:37:43,1001,17,-224,0,0,0,5,41,-14,34.2,35.63,1018.14,0,0
2022-11-02 15:37:43,1001,17,-224,0,0,0,5,41,-14,34.2,35.63,1018.14,0,0
2022-11-02 15:37:43,1001,17,-224,0,0,0,5,41,-14,34.2,35.63,1018.14,0,0
2022-11-02 15:37:43,1001,17,-224,0,0,0,5,41,-14,34.2,35.63,1018.14,0,0
2022-11-02 15:37:43,989,3,-234,0,0,0,4,38,-10,34.2,35.61,1018.15,0,0
2022-11-02 15:37:43,989,3,-234,0,0,0,4,38,-10,34.2,35.61,1018.15,0,0
2022-11-02 15:37:43,989,3,-234,0,0,0,4,38,-10,34.2,35.61,1018.15,0,0
2022-11-02 15:37:43,989,3,-234,0,0,0,4,38,-10,34.2,35.61,1018.15,0,0
2022-11-02 15:37:43,989,3,-234,0,0,0,4,38,-10,34.2,35.61,1018.15,0,0
2022-11-02 15:37:43,989,3,-234,0,0,0,4,38,-10,34.2,35.61,1018.15,0,0
2022-11-02 15:37:43,989,3,-234,0,0,0,4,38,-10,34.2,35.61,1018.15,0,0
2022-11-02 15:37:43,989,3,-234,0,0,0,4,38,-10,34.2,35.61,1018.15,0,0
2022-11-02 15:37:43,989,3,-234,0,0,0,4,38,-10,34.2,35.61,1018.15,0,0
2022-11-02 15:37:43,1005,13,-236,0,0,0,3,40,-14,34.2,35.61,1018.15,0,0
2022-11-02 15:37:43,1005,13,-236,0,0,0,3,40,-14,34.2,35.61,1018.15,0,0
2022-11-02 15:37:43,1005,13,-236,0,0,0,3,40,-14,34.2,35.61,1018.15,0,0
2022-11-02 15:37:43,1005,13,-236,0,0,0,3,40,-14,34.2,35.61,1018.15,0,0
2022-11-02 15:37:43,1005,13,-236,0,0,0,3,40,-14,34.2,35.61,1018.15,0,0
2022-11-02 15:37:43,1005,13,-236,0,0,0,3,40,-14,34.2,35.61,1018.15,0,0
2022-11-02 15:37:43,1005,13,-236,0,0,0,3,40,-14,34.2,35.61,1018.15,0,0
2022-11-02 15:37:43,1005,13,-236,0,0,0,3,40,-14,34.2,35.61,1018.15,0,0
2022-11-02 15:37:43,1005,13,-236,0,0,0,3,40,-14,34.2,35.61,1018.15,0,0
2022-11-02 15:37:43,1005,9,-226,0,0,0,6,39,-14,34.2,35.61,1018.15,0,0
2022-11-02 15:37:43,1005,9,-226,0,0,0,6,39,-14,34.2,35.61,1018.15,0,0
2022-11-02 15:37:43,1005,9,-226,0,0,0,6,39,-14,34.2,35.61,1018.15,0,0
2022-11-02 15:37:43,1005,9,-226,0,0,0,6,39,-14,34.2,35.61,1018.15,0,0
2022-11-02 15:37:43,1005,9,-226,0,0,0,6,39,-14,34.2,35.61,1018.15,0,0
2022-11-02 15:37:43,1005,9,-226,0,0,0,6,39,-14,34.2,35.61,1018.15,0,0
2022-11-02 15:37:43,1005,9,-226,0,0,0,6,39,-14,34.2,35.61,1018.15,0,0
2022-11-02 15:37:43,1005,9,-226,0,0,0,6,39,-14,34.2,35.61,1018.15,0,0
2022-11-02 15:37:43,1005,9,-226,0,0,0,6,39,-14,34.2,35.61,1018.15,0,0
2022-11-02 15:37:43,1001,17,-228,0,0,0,4,40,-12,34.2,35.61,1018.15,0,0
2022-11-02 15:37:43,1001,17,-228,0,0,0,4,40,-12,34.2,35.61,1018.15,0,0
2022-11-02 15:37:43,1001,17,-228,0,0,0,4,40,-12,34.2,35.61,1018.15,0,0
2022-11-02 15:37:43,1001,17,-228,0,0,0,4,40,-12,34.2,35.61,1018.15,0,0
2022-11-02 15:37:43,1001,17,-228,0,0,0,4,40,-12,34.2,35.61,1018.15,0,0
2022-11-02 15:37:43,1001,17,-228,0,0,0,4,40,-12,34.2,35.61,1018.15,0,0
2022-11-02 15:37:43,1001,17,-228,0,0,0,4,40,-12,34.2,35.61,1018.15,0,0
2022-11-02 15:37:43,1001,17,-228,0,0,0,4,40,-12,34.2,35.61,1018.15,0,0
2022-11-02 15:37:43,1001,17,-228,0,0,0,4,40,-12,34.2,35.61,1018.15,0,0
2022-11-02 15:37:43,989,15,-236,0,0,0,2,40,-15,34.2,35.61,1018.15,0,0
2022-11-02 15:37:43,989,15,-236,0,0,0,2,40,-15,34.2,35.61,1018.15,0,0
2022-11-02 15:37:43,989,15,-236,0,0,0,2,40,-15,34.2,35.61,1018.15,0,0
2022-11-02 15:37:43,989,15,-236,0,0,0,2,40,-15,34.2,35.61,1018.15,0,0
2022-11-02 15:37:43,989,15,-236,0,0,0,2,40,-15,34.2,35.61,1018.15,0,0
2022-11-02 15:37:43,989,15,-236,0,0,0,2,40,-15,34.2,35.61,1018.15,0,0
2022-11-02 15:37:43,989,15,-236,0,0,0,2,40,-15,34.2,35.61,1018.15,0,0
2022-11-02 15:37:43,989,15,-236,0,0,0,2,40,-15,34.2,35.61,1018.15,0,0
2022-11-02 15:37:43,989,15,-236,0,0,0,2,40,-15,34.2,35.61,1018.15,0,0
2022-11-02 15:37:43,1001,13,-230,0,1,0,3,39,-15,34.2,35.61,1018.15,0,0
2022-11-02 15:37:43,1001,13,-230,0,1,0,3,39,-15,34.2,35.61,1018.15,0,0
2022-11-02 15:37:43,1001,13,-230,0,1,0,3,39,-15,34.2,35.61,1018.15,0,0
2022-11-02 15:37:43,1001,13,-230,0,1,0,3,39,-15,34.2,35.61,1018.15,0,0
2022-11-02 15:37:43,1001,13,-230,0,1,0,3,39,-15,34.2,35.61,1018.15,0,0
2022-11-02 15:37:43,1001,13,-230,0,1,0,3,39,-15,34.2,35.61,1018.15,0,0
2022-11-02 15:37:43,1001,13,-230,0,1,0,3,39,-15,34.2,35.61,1018.15,0,0
2022-11-02 15:37:43,1001,13,-230,0,1,0,3,39,-15,34.2,35.61,1018.15,0,0
2022-11-02 15:37:43,1001,13,-230,0,1,0,3,39,-15,34.2,35.61,1018.15,0,0
2022-11-02 15:37:43,999,7,-216,0,1,0,3,40,-15,34.2,35.61,1018.15,0,0
2022-11-02 15:37:43,999,7,-216,0,1,0,3,40,-15,34.2,35.61,1018.15,0,0
2022-11-02 15:37:43,999,7,-216,0,1,0,3,40,-15,34.2,35.61,1018.15,0,0
2022-11-02 15:37:43,999,7,-216,0,1,0,3,40,-15,34.2,35.61,1018.15,0,0
2022-11-02 15:37:43,999,7,-216,0,1,0,3,40,-15,34.2,35.61,1018.15,0,0
2022-11-02 15:37:43,999,7,-216,0,1,0,3,40,-15,34.2,35.61,1018.15,0,0
2022-11-02 15:37:43,999,7,-216,0,1,0,3,40,-15,34.2,35.61,1018.15,0,0
2022-11-02 15:37:43,999,7,-216,0,1,0,3,40,-15,34.2,35.61,1018.15,0,0
2022-11-02 15:37:43,999,7,-216,0,1,0,3,40,-15,34.2,35.61,1018.15,0,0
2022-11-02 15:37:43,1003,13,-226,0,1,0,2,41,-10,34.2,35.61,1018.15,0,0
2022-11-02 15:37:43,1003,13,-226,0,1,0,2,41,-10,34.2,35.61,1018.15,0,0
2022-11-02 15:37:43,1003,13,-226,0,1,0,2,41,-10,34.2,35.61,1018.15,0,0
2022-11-02 15:37:43,1003,13,-226,0,1,0,2,41,-10,34.2,35.61,1018.15,0,0
2022-11-02 15:37:43,1003,13,-226,0,1,0,2,41,-10,34.2,35.61,1018.15,0,0
2022-11-02 15:37:43,1003,13,-226,0,1,0,2,41,-10,34.2,35.61,1018.15,0,0
2022-11-02 15:37:43,1003,13,-226,0,1,0,2,41,-10,34.2,35.61,1018.15,0,0
2022-11-02 15:37:43,1003,13,-226,0,1,0,2,41,-10,34.2,35.61,1018.15,0,0
2022-11-02 15:37:43,1003,13,-226,0,1,0,2,41,-10,34.2,35.61,1018.15,0,0
2022-11-02 15:37:44,997,15,-208,0,1,0,5,41,-13,34.2,35.61,1018.15,0,0
2022-11-02 15:37:44,997,15,-208,0,1,0,5,41,-13,34.2,35.61,1018.15,0,0
2022-11-02 15:37:44,997,15,-208,0,1,0,5,41,-13,34.2,35.61,1018.15,0,0
2022-11-02 15:37:44,997,15,-208,0,1,0,5,41,-13,34.2,35.61,1018.15,0,0
2022-11-02 15:37:44,997,15,-208,0,1,0,5,41,-13,34.2,35.61,1018.15,0,0
2022-11-02 15:37:44,997,15,-208,0,1,0,5,41,-13,34.2,35.61,1018.15,0,0
2022-11-02 15:37:44,997,15,-208,0,1,0,5,41,-13,34.2,35.61,1018.15,0,0
2022-11-02 15:37:44,997,15,-208,0,1,0,5,41,-13,34.2,35.61,1018.15,0,0
2022-11-02 15:37:44,997,15,-208,0,1,0,5,41,-13,34.2,35.61,1018.15,0,0
2022-11-02 15:37:44,1003,7,-212,0,1,0,5,38,-11,34.2,35.61,1018.15,0,0
2022-11-02 15:37:44,1003,7,-212,0,1,0,5,38,-11,34.2,35.61,1018.15,0,0
2022-11-02 15:37:44,1003,7,-212,0,1,0,5,38,-11,34.2,35.61,1018.15,0,0
2022-11-02 15:37:44,1003,7,-212,0,1,0,5,38,-11,34.2,35.61,1018.15,0,0
2022-11-02 15:37:44,1003,7,-212,0,1,0,5,38,-11,34.2,35.61,1018.15,0,0
2022-11-02 15:37:44,1003,7,-212,0,1,0,5,38,-11,34.2,35.61,1018.15,0,0
2022-11-02 15:37:44,1003,7,-212,0,1,0,5,38,-11,34.2,35.61,1018.15,0,0
2022-11-02 15:37:44,1003,7,-212,0,1,0,5,38,-11,34.2,35.61,1018.15,0,0
2022-11-02 15:37:44,1003,7,-212,0,1,0,5,38,-11,34.2,35.61,1018.15,0,0
2022-11-02 15:37:44,997,11,-210,0,0,0,5,41,-13,34.2,35.64,1018.11,0,0
2022-11-02 15:37:44,997,11,-210,0,0,0,5,41,-13,34.2,35.64,1018.11,0,0
2022-11-02 15:37:44,997,11,-210,0,0,0,5,41,-13,34.2,35.64,1018.11,0,0
2022-11-02 15:37:44,997,11,-210,0,0,0,5,41,-13,34.2,35.64,1018.11,0,0
2022-11-02 15:37:44,997,11,-210,0,0,0,5,41,-13,34.2,35.64,1018.11,0,0
2022-11-02 15:37:44,997,11,-210,0,0,0,5,41,-13,34.2,35.64,1018.11,0,0
2022-11-02 15:37:44,997,11,-210,0,0,0,5,41,-13,34.2,35.64,1018.11,0,0
2022-11-02 15:37:44,997,11,-210,0,0,0,5,41,-13,34.2,35.64,1018.11,0,0
2022-11-02 15:37:44,997,11,-210,0,0,0,5,41,-13,34.2,35.64,1018.11,0,0
2022-11-02 15:37:44,997,13,-216,0,0,0,3,38,-13,34.2,35.64,1018.11,0,0
2022-11-02 15:37:44,997,13,-216,0,0,0,3,38,-13,34.2,35.64,1018.11,0,0
2022-11-02 15:37:44,997,13,-216,0,0,0,3,38,-13,34.2,35.64,1018.11,0,0
2022-11-02 15:37:44,997,13,-216,0,0,0,3,38,-13,34.2,35.64,1018.11,0,0
2022-11-02 15:37:44,997,13,-216,0,0,0,3,38,-13,34.2,35.64,1018.11,0,0
2022-11-02 15:37:44,997,13,-216,0,0,0,3,38,-13,34.2,35.64,1018.11,0,0
2022-11-02 15:37:44,997,13,-216,0,0,0,3,38,-13,34.2,35.64,1018.11,0,0
2022-11-02 15:37:44,997,13,-216,0,0,0,3,38,-13,34.2,35.64,1018.11,0,0
2022-11-02 15:37:44,997,13,-216,0,0,0,3,38,-13,34.2,35.64,1018.11,0,0
2022-11-02 15:37:44,1001,11,-218,0,0,0,5,41,-13,34.2,35.64,1018.11,0,0
2022-11-02 15:37:44,1001,11,-218,0,0,0,5,41,-13,34.2,35.64,1018.11,0,0
2022-11-02 15:37:44,1001,11,-218,0,0,0,5,41,-13,34.2,35.64,1018.11,0,0
2022-11-02 15:37:44,1001,11,-218,0,0,0,5,41,-13,34.2,35.64,1018.11,0,0
2022-11-02 15:37:44,1001,11,-218,0,0,0,5,41,-13,34.2,35.64,1018.11,0,0
2022-11-02 15:37:44,1001,11,-218,0,0,0,5,41,-13,34.2,35.64,1018.11,0,0
2022-11-02 15:37:44,1001,11,-218,0,0,0,5,41,-13,34.2,35.64,1018.11,0,0
2022-11-02 15:37:44,1001,11,-218,0,0,0,5,41,-13,34.2,35.64,1018.11,0,0
2022-11-02 15:37:44,1001,11,-218,0,0,0,5,41,-13,34.2,35.64,1018.11,0,0
2022-11-02 15:37:44,997,17,-220,0,0,0,6,39,-13,34.2,35.64,1018.11,0,0
2022-11-02 15:37:44,997,17,-220,0,0,0,6,39,-13,34.2,35.64,1018.11,0,0
2022-11-02 15:37:44,997,17,-220,0,0,0,6,39,-13,34.2,35.64,1018.11,0,0
2022-11-02 15:37:44,997,17,-220,0,0,0,6,39,-13,34.2,35.64,1018.11,0,0
2022-11-02 15:37:44,997,17,-220,0,0,0,6,39,-13,34.2,35.64,1018.11,0,0
2022-11-02 15:37:44,997,17,-220,0,0,0,6,39,-13,34.2,35.64,1018.11,0,0
2022-11-02 15:37:44,997,17,-220,0,0,0,6,39,-13,34.2,35.64,1018.11,0,0
2022-11-02 15:37:44,997,17,-220,0,0,0,6,39,-13,34.2,35.64,1018.11,0,0
2022-11-02 15:37:44,997,17,-220,0,0,0,6,39,-13,34.2,35.64,1018.11,0,0
2022-11-02 15:37:44,997,13,-218,0,0,0,5,42,-13,34.2,35.64,1018.11,0,0
2022-11-02 15:37:44,997,13,-218,0,0,0,5,42,-13,34.2,35.64,1018.11,0,0
2022-11-02 15:37:44,997,13,-218,0,0,0,5,42,-13,34.2,35.64,1018.11,0,0
2022-11-02 15:37:44,997,13,-218,0,0,0,5,42,-13,34.2,35.64,1018.11,0,0
2022-11-02 15:37:44,997,13,-218,0,0,0,5,42,-13,34.2,35.64,1018.11,0,0
2022-11-02 15:37:44,997,13,-218,0,0,0,5,42,-13,34.2,35.64,1018.11,0,0
2022-11-02 15:37:44,997,13,-218,0,0,0,5,42,-13,34.2,35.64,1018.11,0,0
2022-11-02 15:37:44,997,13,-218,0,0,0,5,42,-13,34.2,35.64,1018.11,0,0
2022-11-02 15:37:44,997,13,-218,0,0,0,5,42,-13,34.2,35.64,1018.11,0,0
2022-11-02 15:37:44,1007,9,-220,0,0,0,6,40,-12,34.2,35.64,1018.11,0,0
2022-11-02 15:37:44,1007,9,-220,0,0,0,6,40,-12,34.2,35.64,1018.11,0,0
2022-11-02 15:37:44,1007,9,-220,0,0,0,6,40,-12,34.2,35.64,1018.11,0,0
2022-11-02 15:37:44,1007,9,-220,0,0,0,6,40,-12,34.2,35.64,1018.11,0,0
2022-11-02 15:37:44,1007,9,-220,0,0,0,6,40,-12,34.2,35.64,1018.11,0,0
2022-11-02 15:37:44,1007,9,-220,0,0,0,6,40,-12,34.2,35.64,1018.11,0,0
2022-11-02 15:37:44,1007,9,-220,0,0,0,6,40,-12,34.2,35.64,1018.11,0,0
2022-11-02 15:37:44,1007,9,-220,0,0,0,6,40,-12,34.2,35.64,1018.11,0,0
2022-11-02 15:37:44,1007,9,-220,0,0,0,6,40,-12,34.2,35.64,1018.11,0,0
2022-11-02 15:37:44,1003,17,-222,0,0,0,6,40,-12,34.2,35.64,1018.11,0,0
2022-11-02 15:37:44,1003,17,-222,0,0,0,6,40,-12,34.2,35.64,1018.11,0,0
2022-11-02 15:37:44,1003,17,-222,0,0,0,6,40,-12,34.2,35.64,1018.11,0,0
2022-11-02 15:37:44,1003,17,-222,0,0,0,6,40,-12,34.2,35.64,1018.11,0,0
2022-11-02 15:37:44,1003,17,-222,0,0,0,6,40,-12,34.2,35.64,1018.11,0,0
2022-11-02 15:37:44,1003,17,-222,0,0,0,6,40,-12,34.2,35.64,1018.11,0,0
2022-11-02 15:37:44,1003,17,-222,0,0,0,6,40,-12,34.2,35.64,1018.11,0,0
2022-11-02 15:37:44,1003,17,-222,0,0,0,6,40,-12,34.2,35.64,1018.11,0,0
2022-11-02 15:37:44,1003,17,-222,0,0,0,6,40,-12,34.2,35.64,1018.11,0,0
2022-11-02 15:37:44,997,21,-220,0,0,0,6,39,-15,34.2,35.64,1018.11,0,0
2022-11-02 15:37:44,997,21,-220,0,0,0,6,39,-15,34.2,35.64,1018.11,0,0
2022-11-02 15:37:44,997,21,-220,0,0,0,6,39,-15,34.2,35.64,1018.11,0,0
2022-11-02 15:37:44,997,21,-220,0,0,0,6,39,-15,34.2,35.64,1018.11,0,0
2022-11-02 15:37:44,997,21,-220,0,0,0,6,39,-15,34.2,35.64,1018.11,0,0
2022-11-02 15:37:44,997,21,-220,0,0,0,6,39,-15,34.2,35.64,1018.11,0,0
2022-11-02 15:37:44,997,21,-220,0,0,0,6,39,-15,34.2,35.64,1018.11,0,0
2022-11-02 15:37:44,997,21,-220,0,0,0,6,39,-15,34.2,35.64,1018.11,0,0
2022-11-02 15:37:44,997,21,-220,0,0,0,6,39,-15,34.2,35.64,1018.11,0,0
2022-11-02 15:37:45,997,9,-226,0,0,0,5,41,-10,34.2,35.64,1018.11,0,0
2022-11-02 15:37:45,997,9,-226,0,0,0,5,41,-10,34.2,35.64,1018.11,0,0
2022-11-02 15:37:45,997,9,-226,0,0,0,5,41,-10,34.2,35.64,1018.11,0,0
2022-11-02 15:37:45,997,9,-226,0,0,0,5,41,-10,34.2,35.64,1018.11,0,0
2022-11-02 15:37:45,997,9,-226,0,0,0,5,41,-10,34.2,35.64,1018.11,0,0
2022-11-02 15:37:45,997,9,-226,0,0,0,5,41,-10,34.2,35.64,1018.11,0,0
2022-11-02 15:37:45,997,9,-226,0,0,0,5,41,-10,34.2,35.64,1018.11,0,0
2022-11-02 15:37:45,997,9,-226,0,0,0,5,41,-10,34.2,35.64,1018.11,0,0
2022-11-02 15:37:45,997,9,-226,0,0,0,5,41,-10,34.2,35.64,1018.11,0,0
2022-11-02 15:37:45,1005,23,-220,0,0,0,4,40,-13,34.2,35.64,1018.11,0,0
2022-11-02 15:37:45,1005,23,-220,0,0,0,4,40,-13,34.2,35.64,1018.11,0,0
2022-11-02 15:37:45,1005,23,-220,0,0,0,4,40,-13,34.2,35.64,1018.11,0,0
2022-11-02 15:37:45,1005,23,-220,0,0,0,4,40,-13,34.2,35.64,1018.11,0,0
2022-11-02 15:37:45,1005,23,-220,0,0,0,4,40,-13,34.2,35.64,1018.11,0,0
2022-11-02 15:37:45,1005,23,-220,0,0,0,4,40,-13,34.2,35.64,1018.11,0,0
2022-11-02 15:37:45,1005,23,-220,0,0,0,4,40,-13,34.2,35.64,1018.11,0,0
2022-11-02 15:37:45,1005,23,-220,0,0,0,4,40,-13,34.2,35.64,1018.11,0,0
2022-11-02 15:37:45,1005,23,-220,0,0,0,4,40,-13,34.2,35.64,1018.11,0,0
2022-11-02 15:37:45,1005,23,-214,0,0,0,3,36,-11,34.2,35.63,1018.14,0,0
2022-11-02 15:37:45,1005,23,-214,0,0,0,3,36,-11,34.2,35.63,1018.14,0,0
2022-11-02 15:37:45,1005,23,-214,0,0,0,3,36,-11,34.2,35.63,1018.14,0,0
2022-11-02 15:37:45,1005,23,-214,0,0,0,3,36,-11,34.2,35.63,1018.14,0,0
2022-11-02 15:37:45,1005,23,-214,0,0,0,3,36,-11,34.2,35.63,1018.14,0,0
2022-11-02 15:37:45,1005,23,-214,0,0,0,3,36,-11,34.2,35.63,1018.14,0,0
2022-11-02 15:37:45,1005,23,-214,0,0,0,3,36,-11,34.2,35.63,1018.14,0,0
2022-11-02 15:37:45,1005,23,-214,0,0,0,3,36,-11,34.2,35.63,1018.14,0,0
2022-11-02 15:37:45,1005,23,-214,0,0,0,3,36,-11,34.2,35.63,1018.14,0,0
2022-11-02 15:37:45,1001,9,-218,0,0,0,4,41,-10,34.2,35.63,1018.14,0,0
2022-11-02 15:37:45,1001,9,-218,0,0,0,4,41,-10,34.2,35.63,1018.14,0,0
2022-11-02 15:37:45,1001,9,-218,0,0,0,4,41,-10,34.2,35.63,1018.14,0,0
2022-11-02 15:37:45,1001,9,-218,0,0,0,4,41,-10,34.2,35.63,1018.14,0,0
2022-11-02 15:37:45,1001,9,-218,0,0,0,4,41,-10,34.2,35.63,1018.14,0,0
2022-11-02 15:37:45,1001,9,-218,0,0,0,4,41,-10,34.2,35.63,1018.14,0,0
2022-11-02 15:37:45,1001,9,-218,0,0,0,4,41,-10,34.2,35.63,1018.14,0,0
2022-11-02 15:37:45,1001,9,-218,0,0,0,4,41,-10,34.2,35.63,1018.14,0,0
2022-11-02 15:37:45,1001,9,-218,0,0,0,4,41,-10,34.2,35.63,1018.14,0,0
2022-11-02 15:37:45,997,29,-218,0,0,0,5,41,-11,34.2,35.63,1018.14,0,0
2022-11-02 15:37:45,997,29,-218,0,0,0,5,41,-11,34.2,35.63,1018.14,0,0
2022-11-02 15:37:45,997,29,-218,0,0,0,5,41,-11,34.2,35.63,1018.14,0,0
2022-11-02 15:37:45,997,29,-218,0,0,0,5,41,-11,34.2,35.63,1018.14,0,0
2022-11-02 15:37:45,997,29,-218,0,0,0,5,41,-11,34.2,35.63,1018.14,0,0
2022-11-02 15:37:45,997,29,-218,0,0,0,5,41,-11,34.2,35.63,1018.14,0,0
2022-11-02 15:37:45,997,29,-218,0,0,0,5,41,-11,34.2,35.63,1018.14,0,0
2022-11-02 15:37:45,997,29,-218,0,0,0,5,41,-11,34.2,35.63,1018.14,0,0
2022-11-02 15:37:45,997,29,-218,0,0,0,5,41,-11,34.2,35.63,1018.14,0,0
2022-11-02 15:37:45,995,17,-228,0,0,0,4,40,-8,34.2,35.63,1018.14,0,0
2022-11-02 15:37:45,995,17,-228,0,0,0,4,40,-8,34.2,35.63,1018.14,0,0
2022-11-02 15:37:45,995,17,-228,0,0,0,4,40,-8,34.2,35.63,1018.14,0,0
2022-11-02 15:37:45,995,17,-228,0,0,0,4,40,-8,34.2,35.63,1018.14,0,0
2022-11-02 15:37:45,995,17,-228,0,0,0,4,40,-8,34.2,35.63,1018.14,0,0
2022-11-02 15:37:45,995,17,-228,0,0,0,4,40,-8,34.2,35.63,1018.14,0,0
2022-11-02 15:37:45,995,17,-228,0,0,0,4,40,-8,34.2,35.63,1018.14,0,0
2022-11-02 15:37:45,995,17,-228,0,0,0,4,40,-8,34.2,35.63,1018.14,0,0
2022-11-02 15:37:45,995,17,-228,0,0,0,4,40,-8,34.2,35.63,1018.14,0,0
2022-11-02 15:37:45,989,9,-234,0,0,0,3,38,-13,34.2,35.63,1018.14,0,0
2022-11-02 15:37:45,989,9,-234,0,0,0,3,38,-13,34.2,35.63,1018.14,0,0
2022-11-02 15:37:45,989,9,-234,0,0,0,3,38,-13,34.2,35.63,1018.14,0,0
2022-11-02 15:37:45,989,9,-234,0,0,0,3,38,-13,34.2,35.63,1018.14,0,0
2022-11-02 15:37:45,989,9,-234,0,0,0,3,38,-13,34.2,35.63,1018.14,0,0
2022-11-02 15:37:45,989,9,-234,0,0,0,3,38,-13,34.2,35.63,1018.14,0,0
2022-11-02 15:37:45,989,9,-234,0,0,0,3,38,-13,34.2,35.63,1018.14,0,0
2022-11-02 15:37:45,989,9,-234,0,0,0,3,38,-13,34.2,35.63,1018.14,0,0
2022-11-02 15:37:45,989,9,-234,0,0,0,3,38,-13,34.2,35.63,1018.14,0,0
2022-11-02 15:37:45,1005,7,-220,0,0,0,6,38,-13,34.2,35.63,1018.14,0,0
2022-11-02 15:37:45,1005,7,-220,0,0,0,6,38,-13,34.2,35.63,1018.14,0,0
2022-11-02 15:37:45,1005,7,-220,0,0,0,6,38,-13,34.2,35.63,1018.14,0,0
2022-11-02 15:37:45,1005,7,-220,0,0,0,6,38,-13,34.2,35.63,1018.14,0,0
2022-11-02 15:37:45,1005,7,-220,0,0,0,6,38,-13,34.2,35.63,1018.14,0,0
2022-11-02 15:37:45,1005,7,-220,0,0,0,6,38,-13,34.2,35.63,1018.14,0,0
2022-11-02 15:37:45,1005,7,-220,0,0,0,6,38,-13,34.2,35.63,1018.14,0,0
2022-11-02 15:37:45,1005,7,-220,0,0,0,6,38,-13,34.2,35.63,1018.14,0,0
2022-11-02 15:37:45,1005,7,-220,0,0,0,6,38,-13,34.2,35.63,1018.14,0,0
2022-11-02 15:37:45,1001,11,-218,0,0,0,7,41,-10,34.2,35.63,1018.14,0,0
2022-11-02 15:37:45,1001,11,-218,0,0,0,7,41,-10,34.2,35.63,1018.14,0,0
2022-11-02 15:37:45,1001,11,-218,0,0,0,7,41,-10,34.2,35.63,1018.14,0,0
2022-11-02 15:37:45,1001,11,-218,0,0,0,7,41,-10,34.2,35.63,1018.14,0,0
2022-11-02 15:37:45,1001,11,-218,0,0,0,7,41,-10,34.2,35.63,1018.14,0,0
2022-11-02 15:37:45,1001,11,-218,0,0,0,7,41,-10,34.2,35.63,1018.14,0,0
2022-11-02 15:37:45,1001,11,-218,0,0,0,7,41,-10,34.2,35.63,1018.14,0,0
2022-11-02 15:37:45,1001,11,-218,0,0,0,7,41,-10,34.2,35.63,1018.14,0,0
2022-11-02 15:37:45,1001,11,-218,0,0,0,7,41,-10,34.2,35.63,1018.14,0,0
2022-11-02 15:37:45,999,13,-212,0,1,0,7,41,-15,34.2,35.63,1018.14,0,0
2022-11-02 15:37:45,999,13,-212,0,1,0,7,41,-15,34.2,35.63,1018.14,0,0
2022-11-02 15:37:45,999,13,-212,0,1,0,7,41,-15,34.2,35.63,1018.14,0,0
2022-11-02 15:37:45,999,13,-212,0,1,0,7,41,-15,34.2,35.63,1018.14,0,0
2022-11-02 15:37:45,999,13,-212,0,1,0,7,41,-15,34.2,35.63,1018.14,0,0
2022-11-02 15:37:45,999,13,-212,0,1,0,7,41,-15,34.2,35.63,1018.14,0,0
2022-11-02 15:37:45,999,13,-212,0,1,0,7,41,-15,34.2,35.63,1018.14,0,0
2022-11-02 15:37:45,999,13,-212,0,1,0,7,41,-15,34.2,35.63,1018.14,0,0
2022-11-02 15:37:45,999,13,-212,0,1,0,7,41,-15,34.2,35.63,1018.14,0,0
2022-11-02 15:37:46,1001,13,-210,0,1,0,3,41,-13,34.2,35.63,1018.14,0,0
2022-11-02 15:37:46,1001,13,-210,0,1,0,3,41,-13,34.2,35.63,1018.14,0,0
2022-11-02 15:37:46,1001,13,-210,0,1,0,3,41,-13,34.2,35.63,1018.14,0,0
2022-11-02 15:37:46,1001,13,-210,0,1,0,3,41,-13,34.2,35.63,1018.14,0,0
2022-11-02 15:37:46,1001,13,-210,0,1,0,3,41,-13,34.2,35.63,1018.14,0,0
2022-11-02 15:37:46,1001,13,-210,0,1,0,3,41,-13,34.2,35.63,1018.14,0,0
2022-11-02 15:37:46,1001,13,-210,0,1,0,3,41,-13,34.2,35.63,1018.14,0,0
2022-11-02 15:37:46,1001,13,-210,0,1,0,3,41,-13,34.2,35.63,1018.14,0,0
2022-11-02 15:37:46,1001,13,-210,0,1,0,3,41,-13,34.2,35.63,1018.14,0,0
2022-11-02 15:37:46,993,15,-220,0,0,0,5,38,-14,34.2,35.63,1018.14,0,0
2022-11-02 15:37:46,993,15,-220,0,0,0,5,38,-14,34.2,35.63,1018.14,0,0
2022-11-02 15:37:46,993,15,-220,0,0,0,5,38,-14,34.2,35.63,1018.14,0,0
2022-11-02 15:37:46,993,15,-220,0,0,0,5,38,-14,34.2,35.63,1018.14,0,0
2022-11-02 15:37:46,993,15,-220,0,0,0,5,38,-14,34.2,35.63,1018.14,0,0
2022-11-02 15:37:46,993,15,-220,0,0,0,5,38,-14,34.2,35.63,1018.14,0,0
2022-11-02 15:37:46,993,15,-220,0,0,0,5,38,-14,34.2,35.63,1018.14,0,0
2022-11-02 15:37:46,993,15,-220,0,0,0,5,38,-14,34.2,35.63,1018.14,0,0
2022-11-02 15:37:46,993,15,-220,0,0,0,5,38,-14,34.2,35.63,1018.14,0,0
2022-11-02 15:37:46,1001,29,-218,0,0,0,5,39,-13,34.2,35.64,1018.11,0,0
2022-11-02 15:37:46,1001,29,-218,0,0,0,5,39,-13,34.2,35.64,1018.11,0,0
2022-11-02 15:37:46,1001,29,-218,0,0,0,5,39,-13,34.2,35.64,1018.11,0,0
2022-11-02 15:37:46,1001,29,-218,0,0,0,5,39,-13,34.2,35.64,1018.11,0,0
2022-11-02 15:37:46,1001,29,-218,0,0,0,5,39,-13,34.2,35.64,1018.11,0,0
2022-11-02 15:37:46,1001,29,-218,0,0,0,5,39,-13,34.2,35.64,1018.11,0,0
2022-11-02 15:37:46,1001,29,-218,0,0,0,5,39,-13,34.2,35.64,1018.11,0,0
2022-11-02 15:37:46,1001,29,-218,0,0,0,5,39,-13,34.2,35.64,1018.11,0,0
2022-11-02 15:37:46,1001,29,-218,0,0,0,5,39,-13,34.2,35.64,1018.11,0,0
2022-11-02 15:37:46,995,19,-216,0,0,0,6,40,-10,34.2,35.64,1018.11,0,0
2022-11-02 15:37:46,995,19,-216,0,0,0,6,40,-10,34.2,35.64,1018.11,0,0
2022-11-02 15:37:46,995,19,-216,0,0,0,6,40,-10,34.2,35.64,1018.11,0,0
2022-11-02 15:37:46,995,19,-216,0,0,0,6,40,-10,34.2,35.64,1018.11,0,0
2022-11-02 15:37:46,995,19,-216,0,0,0,6,40,-10,34.2,35.64,1018.11,0,0
2022-11-02 15:37:46,995,19,-216,0,0,0,6,40,-10,34.2,35.64,1018.11,0,0
2022-11-02 15:37:46,995,19,-216,0,0,0,6,40,-10,34.2,35.64,1018.11,0,0
2022-11-02 15:37:46,995,19,-216,0,0,0,6,40,-10,34.2,35.64,1018.11,0,0
2022-11-02 15:37:46,995,19,-216,0,0,0,6,40,-10,34.2,35.64,1018.11,0,0
2022-11-02 15:37:46,1003,27,-222,0,0,0,3,43,-9,34.2,35.64,1018.11,0,0
2022-11-02 15:37:46,1003,27,-222,0,0,0,3,43,-9,34.2,35.64,1018.11,0,0
2022-11-02 15:37:46,1003,27,-222,0,0,0,3,43,-9,34.2,35.64,1018.11,0,0
2022-11-02 15:37:46,1003,27,-222,0,0,0,3,43,-9,34.2,35.64,1018.11,0,0
2022-11-02 15:37:46,1003,27,-222,0,0,0,3,43,-9,34.2,35.64,1018.11,0,0
2022-11-02 15:37:46,1003,27,-222,0,0,0,3,43,-9,34.2,35.64,1018.11,0,0
2022-11-02 15:37:46,1003,27,-222,0,0,0,3,43,-9,34.2,35.64,1018.11,0,0
2022-11-02 15:37:46,1003,27,-222,0,0,0,3,43,-9,34.2,35.64,1018.11,0,0
2022-11-02 15:37:46,1003,27,-222,0,0,0,3,43,-9,34.2,35.64,1018.11,0,0
2022-11-02 15:37:46,999,21,-208,0,0,0,5,41,-12,34.2,35.64,1018.11,0,0
2022-11-02 15:37:46,999,21,-208,0,0,0,5,41,-12,34.2,35.64,1018.11,0,0
2022-11-02 15:37:46,999,21,-208,0,0,0,5,41,-12,34.2,35.64,1018.11,0,0
2022-11-02 15:37:46,999,21,-208,0,0,0,5,41,-12,34.2,35.64,1018.11,0,0
2022-11-02 15:37:46,999,21,-208,0,0,0,5,41,-12,34.2,35.64,1018.11,0,0
2022-11-02 15:37:46,999,21,-208,0,0,0,5,41,-12,34.2,35.64,1018.11,0,0
2022-11-02 15:37:46,999,21,-208,0,0,0,5,41,-12,34.2,35.64,1018.11,0,0
2022-11-02 15:37:46,999,21,-208,0,0,0,5,41,-12,34.2,35.64,1018.11,0,0
2022-11-02 15:37:46,999,21,-208,0,0,0,5,41,-12,34.2,35.64,1018.11,0,0
2022-11-02 15:37:46,1007,21,-208,0,0,0,5,39,-12,34.2,35.64,1018.11,0,0
2022-11-02 15:37:46,1007,21,-208,0,0,0,5,39,-12,34.2,35.64,1018.11,0,0
2022-11-02 15:37:46,1007,21,-208,0,0,0,5,39,-12,34.2,35.64,1018.11,0,0
2022-11-02 15:37:46,1007,21,-208,0,0,0,5,39,-12,34.2,35.64,1018.11,0,0
2022-11-02 15:37:46,1007,21,-208,0,0,0,5,39,-12,34.2,35.64,1018.11,0,0
2022-11-02 15:37:46,1007,21,-208,0,0,0,5,39,-12,34.2,35.64,1018.11,0,0
2022-11-02 15:37:46,1007,21,-208,0,0,0,5,39,-12,34.2,35.64,1018.11,0,0
2022-11-02 15:37:46,1007,21,-208,0,0,0,5,39,-12,34.2,35.64,1018.11,0,0
2022-11-02 15:37:46,1007,21,-208,0,0,0,5,39,-12,34.2,35.64,1018.11,0,0
2022-11-02 15:37:46,991,35,-220,0,0,-1,5,42,-11,34.2,35.64,1018.11,0,0
2022-11-02 15:37:46,991,35,-220,0,0,-1,5,42,-11,34.2,35.64,1018.11,0,0
2022-11-02 15:37:46,991,35,-220,0,0,-1,5,42,-11,34.2,35.64,1018.11,0,0
2022-11-02 15:37:46,991,35,-220,0,0,-1,5,42,-11,34.2,35.64,1018.11,0,0
2022-11-02 15:37:46,991,35,-220,0,0,-1,5,42,-11,34.2,35.64,1018.11,0,0
2022-11-02 15:37:46,991,35,-220,0,0,-1,5,42,-11,34.2,35.64,1018.11,0,0
2022-11-02 15:37:46,991,35,-220,0,0,-1,5,42,-11,34.2,35.64,1018.11,0,0
2022-11-02 15:37:46,991,35,-220,0,0,-1,5,42,-11,34.2,35.64,1018.11,0,0
2022-11-02 15:37:46,991,35,-220,0,0,-1,5,42,-11,34.2,35.64,1018.11,0,0
2022-11-02 15:37:46,1003,19,-218,0,1,0,5,38,-15,34.2,35.64,1018.11,0,0
2022-11-02 15:37:46,1003,19,-218,0,1,0,5,38,-15,34.2,35.64,1018.11,0,0
2022-11-02 15:37:46,1003,19,-218,0,1,0,5,38,-15,34.2,35.64,1018.11,0,0
2022-11-02 15:37:46,1003,19,-218,0,1,0,5,38,-15,34.2,35.64,1018.11,0,0
2022-11-02 15:37:46,1003,19,-218,0,1,0,5,38,-15,34.2,35.64,1018.11,0,0
2022-11-02 15:37:46,1003,19,-218,0,1,0,5,38,-15,34.2,35.64,1018.11,0,0
2022-11-02 15:37:46,1003,19,-218,0,1,0,5,38,-15,34.2,35.64,1018.11,0,0
2022-11-02 15:37:46,1003,19,-218,0,1,0,5,38,-15,34.2,35.64,1018.11,0,0
2022-11-02 15:37:46,1003,19,-218,0,1,0,5,38,-15,34.2,35.64,1018.11,0,0
2022-11-02 15:37:46,1007,17,-210,0,1,0,5,39,-13,34.2,35.64,1018.11,0,0
2022-11-02 15:37:46,1007,17,-210,0,1,0,5,39,-13,34.2,35.64,1018.11,0,0
2022-11-02 15:37:46,1007,17,-210,0,1,0,5,39,-13,34.2,35.64,1018.11,0,0
2022-11-02 15:37:46,1007,17,-210,0,1,0,5,39,-13,34.2,35.64,1018.11,0,0
2022-11-02 15:37:46,1007,17,-210,0,1,0,5,39,-13,34.2,35.64,1018.11,0,0
2022-11-02 15:37:46,1007,17,-210,0,1,0,5,39,-13,34.2,35.64,1018.11,0,0
2022-11-02 15:37:46,1007,17,-210,0,1,0,5,39,-13,34.2,35.64,1018.11,0,0
2022-11-02 15:37:46,1007,17,-210,0,1,0,5,39,-13,34.2,35.64,1018.11,0,0
2022-11-02 15:37:46,1007,17,-210,0,1,0,5,39,-13,34.2,35.64,1018.11,0,0
2022-11-02 15:37:47,993,33,-220,0,0,0,4,40,-16,34.2,35.64,1018.11,0,0
2022-11-02 15:37:47,993,33,-220,0,0,0,4,40,-16,34.2,35.64,1018.11,0,0
2022-11-02 15:37:47,993,33,-220,0,0,0,4,40,-16,34.2,35.64,1018.11,0,0
2022-11-02 15:37:47,993,33,-220,0,0,0,4,40,-16,34.2,35.64,1018.11,0,0
2022-11-02 15:37:47,993,33,-220,0,0,0,4,40,-16,34.2,35.64,1018.11,0,0
2022-11-02 15:37:47,993,33,-220,0,0,0,4,40,-16,34.2,35.64,1018.11,0,0
2022-11-02 15:37:47,993,33,-220,0,0,0,4,40,-16,34.2,35.64,1018.11,0,0
2022-11-02 15:37:47,993,33,-220,0,0,0,4,40,-16,34.2,35.64,1018.11,0,0
2022-11-02 15:37:47,993,33,-220,0,0,0,4,40,-16,34.2,35.64,1018.11,0,0
2022-11-02 15:37:47,993,25,-214,0,0,0,5,41,-15,34.2,35.64,1018.11,0,0
2022-11-02 15:37:47,993,25,-214,0,0,0,5,41,-15,34.2,35.64,1018.11,0,0
2022-11-02 15:37:47,993,25,-214,0,0,0,5,41,-15,34.2,35.64,1018.11,0,0
2022-11-02 15:37:47,993,25,-214,0,0,0,5,41,-15,34.2,35.64,1018.11,0,0
2022-11-02 15:37:47,993,25,-214,0,0,0,5,41,-15,34.2,35.64,1018.11,0,0
2022-11-02 15:37:47,993,25,-214,0,0,0,5,41,-15,34.2,35.64,1018.11,0,0
2022-11-02 15:37:47,993,25,-214,0,0,0,5,41,-15,34.2,35.64,1018.11,0,0
2022-11-02 15:37:47,993,25,-214,0,0,0,5,41,-15,34.2,35.64,1018.11,0,0
2022-11-02 15:37:47,993,25,-214,0,0,0,5,41,-15,34.2,35.64,1018.11,0,0
2022-11-02 15:37:47,1005,17,-208,-3,3,-1,4,42,-17,34.2,35.64,1018.08,0,0
2022-11-02 15:37:47,1005,17,-208,-3,3,-1,4,42,-17,34.2,35.64,1018.08,0,0
2022-11-02 15:37:47,1005,17,-208,-3,3,-1,4,42,-17,34.2,35.64,1018.08,0,0
2022-11-02 15:37:47,1005,17,-208,-3,3,-1,4,42,-17,34.2,35.64,1018.08,0,0
2022-11-02 15:37:47,1005,17,-208,-3,3,-1,4,42,-17,34.2,35.64,1018.08,0,0
2022-11-02 15:37:47,1005,17,-208,-3,3,-1,4,42,-17,34.2,35.64,1018.08,0,0
2022-11-02 15:37:47,1005,17,-208,-3,3,-1,4,42,-17,34.2,35.64,1018.08,0,0
2022-11-02 15:37:47,1005,17,-208,-3,3,-1,4,42,-17,34.2,35.64,1018.08,0,0
2022-11-02 15:37:47,1005,17,-208,-3,3,-1,4,42,-17,34.2,35.64,1018.08,0,0
2022-11-02 15:37:47,995,31,-195,-2,0,0,4,39,-17,34.2,35.64,1018.08,0,0
2022-11-02 15:37:47,995,31,-195,-2,0,0,4,39,-17,34.2,35.64,1018.08,0,0
2022-11-02 15:37:47,995,31,-195,-2,0,0,4,39,-17,34.2,35.64,1018.08,0,0
2022-11-02 15:37:47,995,31,-195,-2,0,0,4,39,-17,34.2,35.64,1018.08,0,0
2022-11-02 15:37:47,995,31,-195,-2,0,0,4,39,-17,34.2,35.64,1018.08,0,0
2022-11-02 15:37:47,995,31,-195,-2,0,0,4,39,-17,34.2,35.64,1018.08,0,0
2022-11-02 15:37:47,995,31,-195,-2,0,0,4,39,-17,34.2,35.64,1018.08,0,0
2022-11-02 15:37:47,995,31,-195,-2,0,0,4,39,-17,34.2,35.64,1018.08,0,0
2022-11-02 15:37:47,995,31,-195,-2,0,0,4,39,-17,34.2,35.64,1018.08,0,0
2022-11-02 15:37:47,1011,21,-201,0,-1,-2,4,42,-11,34.2,35.64,1018.08,0,0
2022-11-02 15:37:47,1011,21,-201,0,-1,-2,4,42,-11,34.2,35.64,1018.08,0,0
2022-11-02 15:37:47,1011,21,-201,0,-1,-2,4,42,-11,34.2,35.64,1018.08,0,0
2022-11-02 15:37:47,1011,21,-201,0,-1,-2,4,42,-11,34.2,35.64,1018.08,0,0
2022-11-02 15:37:47,1011,21,-201,0,-1,-2,4,42,-11,34.2,35.64,1018.08,0,0
2022-11-02 15:37:47,1011,21,-201,0,-1,-2,4,42,-11,34.2,35.64,1018.08,0,0
2022-11-02 15:37:47,1011,21,-201,0,-1,-2,4,42,-11,34.2,35.64,1018.08,0,0
2022-11-02 15:37:47,1011,21,-201,0,-1,-2,4,42,-11,34.2,35.64,1018.08,0,0
2022-11-02 15:37:47,1011,21,-201,0,-1,-2,4,42,-11,34.2,35.64,1018.08,0,0
2022-11-02 15:37:47,1005,29,-195,-1,0,0,4,40,-10,34.2,35.64,1018.08,0,0
2022-11-02 15:37:47,1005,29,-195,-1,0,0,4,40,-10,34.2,35.64,1018.08,0,0
2022-11-02 15:37:47,1005,29,-195,-1,0,0,4,40,-10,34.2,35.64,1018.08,0,0
2022-11-02 15:37:47,1005,29,-195,-1,0,0,4,40,-10,34.2,35.64,1018.08,0,0
2022-11-02 15:37:47,1005,29,-195,-1,0,0,4,40,-10,34.2,35.64,1018.08,0,0
2022-11-02 15:37:47,1005,29,-195,-1,0,0,4,40,-10,34.2,35.64,1018.08,0,0
2022-11-02 15:37:47,1005,29,-195,-1,0,0,4,40,-10,34.2,35.64,1018.08,0,0
2022-11-02 15:37:47,1005,29,-195,-1,0,0,4,40,-10,34.2,35.64,1018.08,0,0
2022-11-02 15:37:47,1005,29,-195,-1,0,0,4,40,-10,34.2,35.64,1018.08,0,0
2022-11-02 15:37:47,997,40,-203,1,0,0,6,43,-10,34.2,35.64,1018.08,0,0
2022-11-02 15:37:47,997,40,-203,1,0,0,6,43,-10,34.2,35.64,1018.08,0,0
2022-11-02 15:37:47,997,40,-203,1,0,0,6,43,-10,34.2,35.64,1018.08,0,0
2022-11-02 15:37:47,997,40,-203,1,0,0,6,43,-10,34.2,35.64,1018.08,0,0
2022-11-02 15:37:47,997,40,-203,1,0,0,6,43,-10,34.2,35.64,1018.08,0,0
2022-11-02 15:37:47,997,40,-203,1,0,0,6,43,-10,34.2,35.64,1018.08,0,0
2022-11-02 15:37:47,997,40,-203,1,0,0,6,43,-10,34.2,35.64,1018.08,0,0
2022-11-02 15:37:47,997,40,-203,1,0,0,6,43,-10,34.2,35.64,1018.08,0,0
2022-11-02 15:37:47,997,40,-203,1,0,0,6,43,-10,34.2,35.64,1018.08,0,0
2022-11-02 15:37:47,997,40,-218,0,1,0,4,42,-12,34.2,35.64,1018.08,0,0
2022-11-02 15:37:47,997,40,-218,0,1,0,4,42,-12,34.2,35.64,1018.08,0,0
2022-11-02 15:37:47,997,40,-218,0,1,0,4,42,-12,34.2,35.64,1018.08,0,0
2022-11-02 15:37:47,997,40,-218,0,1,0,4,42,-12,34.2,35.64,1018.08,0,0
2022-11-02 15:37:47,997,40,-218,0,1,0,4,42,-12,34.2,35.64,1018.08,0,0
2022-11-02 15:37:47,997,40,-218,0,1,0,4,42,-12,34.2,35.64,1018.08,0,0
2022-11-02 15:37:47,997,40,-218,0,1,0,4,42,-12,34.2,35.64,1018.08,0,0
2022-11-02 15:37:47,997,40,-218,0,1,0,4,42,-12,34.2,35.64,1018.08,0,0
2022-11-02 15:37:47,997,40,-218,0,1,0,4,42,-12,34.2,35.64,1018.08,0,0
2022-11-02 15:37:47,993,40,-206,2,0,0,5,42,-6,34.2,35.64,1018.08,0,0
2022-11-02 15:37:47,993,40,-206,2,0,0,5,42,-6,34.2,35.64,1018.08,0,0
2022-11-02 15:37:47,993,40,-206,2,0,0,5,42,-6,34.2,35.64,1018.08,0,0
2022-11-02 15:37:47,993,40,-206,2,0,0,5,42,-6,34.2,35.64,1018.08,0,0
2022-11-02 15:37:47,993,40,-206,2,0,0,5,42,-6,34.2,35.64,1018.08,0,0
2022-11-02 15:37:47,993,40,-206,2,0,0,5,42,-6,34.2,35.64,1018.08,0,0
2022-11-02 15:37:47,993,40,-206,2,0,0,5,42,-6,34.2,35.64,1018.08,0,0
2022-11-02 15:37:47,993,40,-206,2,0,0,5,42,-6,34.2,35.64,1018.08,0,0
2022-11-02 15:37:47,993,40,-206,2,0,0,5,42,-6,34.2,35.64,1018.08,0,0
2022-11-02 15:37:47,1001,37,-203,0,0,0,5,43,-12,34.2,35.64,1018.08,0,0
2022-11-02 15:37:47,1001,37,-203,0,0,0,5,43,-12,34.2,35.64,1018.08,0,0
2022-11-02 15:37:47,1001,37,-203,0,0,0,5,43,-12,34.2,35.64,1018.08,0,0
2022-11-02 15:37:47,1001,37,-203,0,0,0,5,43,-12,34.2,35.64,1018.08,0,0
2022-11-02 15:37:47,1001,37,-203,0,0,0,5,43,-12,34.2,35.64,1018.08,0,0
2022-11-02 15:37:47,1001,37,-203,0,0,0,5,43,-12,34.2,35.64,1018.08,0,0
2022-11-02 15:37:47,1001,37,-203,0,0,0,5,43,-12,34.2,35.64,1018.08,0,0
2022-11-02 15:37:47,1001,37,-203,0,0,0,5,43,-12,34.2,35.64,1018.08,0,0
2022-11-02 15:37:47,1001,37,-203,0,0,0,5,43,-12,34.2,35.64,1018.08,0,0
2022-11-02 15:37:48,1005,40,-203,0,0,0,4,41,-15,34.2,35.64,1018.08,0,0
2022-11-02 15:37:48,1005,40,-203,0,0,0,4,41,-15,34.2,35.64,1018.08,0,0
2022-11-02 15:37:48,1005,40,-203,0,0,0,4,41,-15,34.2,35.64,1018.08,0,0
2022-11-02 15:37:48,1005,40,-203,0,0,0,4,41,-15,34.2,35.64,1018.08,0,0
2022-11-02 15:37:48,1005,40,-203,0,0,0,4,41,-15,34.2,35.64,1018.08,0,0
2022-11-02 15:37:48,1005,40,-203,0,0,0,4,41,-15,34.2,35.64,1018.08,0,0
2022-11-02 15:37:48,1005,40,-203,0,0,0,4,41,-15,34.2,35.64,1018.08,0,0
2022-11-02 15:37:48,1005,40,-203,0,0,0,4,41,-15,34.2,35.64,1018.08,0,0
2022-11-02 15:37:48,1005,40,-203,0,0,0,4,41,-15,34.2,35.64,1018.08,0,0
2022-11-02 15:37:48,1007,27,-206,0,0,0,5,41,-13,34.2,35.64,1018.08,0,0
2022-11-02 15:37:48,1007,27,-206,0,0,0,5,41,-13,34.2,35.64,1018.08,0,0
2022-11-02 15:37:48,1007,27,-206,0,0,0,5,41,-13,34.2,35.64,1018.08,0,0
2022-11-02 15:37:48,1007,27,-206,0,0,0,5,41,-13,34.2,35.64,1018.08,0,0
2022-11-02 15:37:48,1007,27,-206,0,0,0,5,41,-13,34.2,35.64,1018.08,0,0
2022-11-02 15:37:48,1007,27,-206,0,0,0,5,41,-13,34.2,35.64,1018.08,0,0
2022-11-02 15:37:48,1007,27,-206,0,0,0,5,41,-13,34.2,35.64,1018.08,0,0
2022-11-02 15:37:48,1007,27,-206,0,0,0,5,41,-13,34.2,35.64,1018.08,0,0
2022-11-02 15:37:48,1007,27,-206,0,0,0,5,41,-13,34.2,35.64,1018.08,0,0
2022-11-02 15:37:48,1005,46,-214,0,0,0,5,39,-13,34.2,35.63,1018.11,0,0
2022-11-02 15:37:48,1005,46,-214,0,0,0,5,39,-13,34.2,35.63,1018.11,0,0
2022-11-02 15:37:48,1005,46,-214,0,0,0,5,39,-13,34.2,35.63,1018.11,0,0
2022-11-02 15:37:48,1005,46,-214,0,0,0,5,39,-13,34.2,35.63,1018.11,0,0
2022-11-02 15:37:48,1005,46,-214,0,0,0,5,39,-13,34.2,35.63,1018.11,0,0
2022-11-02 15:37:48,1005,46,-214,0,0,0,5,39,-13,34.2,35.63,1018.11,0,0
2022-11-02 15:37:48,1005,46,-214,0,0,0,5,39,-13,34.2,35.63,1018.11,0,0
2022-11-02 15:37:48,1005,46,-214,0,0,0,5,39,-13,34.2,35.63,1018.11,0,0
2022-11-02 15:37:48,1005,46,-214,0,0,0,5,39,-13,34.2,35.63,1018.11,0,0
2022-11-02 15:37:48,1013,33,-195,-1,0,0,5,42,-12,34.2,35.63,1018.11,0,0
2022-11-02 15:37:48,1013,33,-195,-1,0,0,5,42,-12,34.2,35.63,1018.11,0,0
2022-11-02 15:37:48,1013,33,-195,-1,0,0,5,42,-12,34.2,35.63,1018.11,0,0
2022-11-02 15:37:48,1013,33,-195,-1,0,0,5,42,-12,34.2,35.63,1018.11,0,0
2022-11-02 15:37:48,1013,33,-195,-1,0,0,5,42,-12,34.2,35.63,1018.11,0,0
2022-11-02 15:37:48,1013,33,-195,-1,0,0,5,42,-12,34.2,35.63,1018.11,0,0
2022-11-02 15:37:48,1013,33,-195,-1,0,0,5,42,-12,34.2,35.63,1018.11,0,0
2022-11-02 15:37:48,1013,33,-195,-1,0,0,5,42,-12,34.2,35.63,1018.11,0,0
2022-11-02 15:37:48,1013,33,-195,-1,0,0,5,42,-12,34.2,35.63,1018.11,0,0
2022-11-02 15:37:48,1003,29,-191,0,0,0,5,41,-13,34.2,35.63,1018.11,0,0
2022-11-02 15:37:48,1003,29,-191,0,0,0,5,41,-13,34.2,35.63,1018.11,0,0
2022-11-02 15:37:48,1003,29,-191,0,0,0,5,41,-13,34.2,35.63,1018.11,0,0
2022-11-02 15:37:48,1003,29,-191,0,0,0,5,41,-13,34.2,35.63,1018.11,0,0
2022-11-02 15:37:48,1003,29,-191,0,0,0,5,41,-13,34.2,35.63,1018.11,0,0
2022-11-02 15:37:48,1003,29,-191,0,0,0,5,41,-13,34.2,35.63,1018.11,0,0
2022-11-02 15:37:48,1003,29,-191,0,0,0,5,41,-13,34.2,35.63,1018.11,0,0
2022-11-02 15:37:48,1003,29,-191,0,0,0,5,41,-13,34.2,35.63,1018.11,0,0
2022-11-02 15:37:48,1003,29,-191,0,0,0,5,41,-13,34.2,35.63,1018.11,0,0
2022-11-02 15:37:48,1007,9,-185,0,0,0,6,42,-17,34.2,35.63,1018.11,0,0
2022-11-02 15:37:48,1007,9,-185,0,0,0,6,42,-17,34.2,35.63,1018.11,0,0
2022-11-02 15:37:48,1007,9,-185,0,0,0,6,42,-17,34.2,35.63,1018.11,0,0
2022-11-02 15:37:48,1007,9,-185,0,0,0,6,42,-17,34.2,35.63,1018.11,0,0
2022-11-02 15:37:48,1007,9,-185,0,0,0,6,42,-17,34.2,35.63,1018.11,0,0
2022-11-02 15:37:48,1007,9,-185,0,0,0,6,42,-17,34.2,35.63,1018.11,0,0
2022-11-02 15:37:48,1007,9,-185,0,0,0,6,42,-17,34.2,35.63,1018.11,0,0
2022-11-02 15:37:48,1007,9,-185,0,0,0,6,42,-17,34.2,35.63,1018.11,0,0
2022-11-02 15:37:48,1007,9,-185,0,0,0,6,42,-17,34.2,35.63,1018.11,0,0
2022-11-02 15:37:48,1007,46,-210,0,0,0,4,40,-12,34.2,35.63,1018.11,0,0
2022-11-02 15:37:48,1007,46,-210,0,0,0,4,40,-12,34.2,35.63,1018.11,0,0
2022-11-02 15:37:48,1007,46,-210,0,0,0,4,40,-12,34.2,35.63,1018.11,0,0
2022-11-02 15:37:48,1007,46,-210,0,0,0,4,40,-12,34.2,35.63,1018.11,0,0
2022-11-02 15:37:48,1007,46,-210,0,0,0,4,40,-12,34.2,35.63,1018.11,0,0
2022-11-02 15:37:48,1007,46,-210,0,0,0,4,40,-12,34.2,35.63,1018.11,0,0
2022-11-02 15:37:48,1007,46,-210,0,0,0,4,40,-12,34.2,35.63,1018.11,0,0
2022-11-02 15:37:48,1007,46,-210,0,0,0,4,40,-12,34.2,35.63,1018.11,0,0
2022-11-02 15:37:48,1007,46,-210,0,0,0,4,40,-12,34.2,35.63,1018.11,0,0
2022-11-02 15:37:48,1009,37,-185,0,0,0,3,40,-14,34.2,35.63,1018.11,0,0
2022-11-02 15:37:48,1009,37,-185,0,0,0,3,40,-14,34.2,35.63,1018.11,0,0
2022-11-02 15:37:48,1009,37,-185,0,0,0,3,40,-14,34.2,35.63,1018.11,0,0
2022-11-02 15:37:48,1009,37,-185,0,0,0,3,40,-14,34.2,35.63,1018.11,0,0
2022-11-02 15:37:48,1009,37,-185,0,0,0,3,40,-14,34.2,35.63,1018.11,0,0
2022-11-02 15:37:48,1009,37,-185,0,0,0,3,40,-14,34.2,35.63,1018.11,0,0
2022-11-02 15:37:48,1009,37,-185,0,0,0,3,40,-14,34.2,35.63,1018.11,0,0
2022-11-02 15:37:48,1009,37,-185,0,0,0,3,40,-14,34.2,35.63,1018.11,0,0
2022-11-02 15:37:48,1009,37,-185,0,0,0,3,40,-14,34.2,35.63,1018.11,0,0
2022-11-02 15:37:48,989,56,-226,0,-1,0,3,41,-8,34.2,35.63,1018.11,0,0
2022-11-02 15:37:48,989,56,-226,0,-1,0,3,41,-8,34.2,35.63,1018.11,0,0
2022-11-02 15:37:48,989,56,-226,0,-1,0,3,41,-8,34.2,35.63,1018.11,0,0
2022-11-02 15:37:48,989,56,-226,0,-1,0,3,41,-8,34.2,35.63,1018.11,0,0
2022-11-02 15:37:48,989,56,-226,0,-1,0,3,41,-8,34.2,35.63,1018.11,0,0
2022-11-02 15:37:48,989,56,-226,0,-1,0,3,41,-8,34.2,35.63,1018.11,0,0
2022-11-02 15:37:48,989,56,-226,0,-1,0,3,41,-8,34.2,35.63,1018.11,0,0
2022-11-02 15:37:48,989,56,-226,0,-1,0,3,41,-8,34.2,35.63,1018.11,0,0
2022-11-02 15:37:48,989,56,-226,0,-1,0,3,41,-8,34.2,35.63,1018.11,0,0
2022-11-02 15:37:48,1001,39,-212,0,0,0,3,41,-13,34.2,35.63,1018.11,0,0
2022-11-02 15:37:48,1001,39,-212,0,0,0,3,41,-13,34.2,35.63,1018.11,0,0
2022-11-02 15:37:48,1001,39,-212,0,0,0,3,41,-13,34.2,35.63,1018.11,0,0
2022-11-02 15:37:48,1001,39,-212,0,0,0,3,41,-13,34.2,35.63,1018.11,0,0
2022-11-02 15:37:48,1001,39,-212,0,0,0,3,41,-13,34.2,35.63,1018.11,0,0
2022-11-02 15:37:48,1001,39,-212,0,0,0,3,41,-13,34.2,35.63,1018.11,0,0
2022-11-02 15:37:48,1001,39,-212,0,0,0,3,41,-13,34.2,35.63,1018.11,0,0
2022-11-02 15:37:48,1001,39,-212,0,0,0,3,41,-13,34.2,35.63,1018.11,0,0
2022-11-02 15:37:48,1001,39,-212,0,0,0,3,41,-13,34.2,35.63,1018.11,0,0
2022-11-02 15:37:49,995,33,-204,0,0,0,4,38,-10,34.2,35.63,1018.11,0,0
2022-11-02 15:37:49,995,33,-204,0,0,0,4,38,-10,34.2,35.63,1018.11,0,0
2022-11-02 15:37:49,995,33,-204,0,0,0,4,38,-10,34.2,35.63,1018.11,0,0
2022-11-02 15:37:49,995,33,-204,0,0,0,4,38,-10,34.2,35.63,1018.11,0,0
2022-11-02 15:37:49,995,33,-204,0,0,0,4,38,-10,34.2,35.63,1018.11,0,0
2022-11-02 15:37:49,995,33,-204,0,0,0,4,38,-10,34.2,35.63,1018.11,0,0
2022-11-02 15:37:49,995,33,-204,0,0,0,4,38,-10,34.2,35.63,1018.11,0,0
2022-11-02 15:37:49,995,33,-204,0,0,0,4,38,-10,34.2,35.63,1018.11,0,0
2022-11-02 15:37:49,995,33,-204,0,0,0,4,38,-10,34.2,35.63,1018.11,0,0
2022-11-02 15:37:49,993,46,-214,0,0,0,2,39,-13,34.2,35.63,1018.11,0,0
2022-11-02 15:37:49,993,46,-214,0,0,0,2,39,-13,34.2,35.63,1018.11,0,0
2022-11-02 15:37:49,993,46,-214,0,0,0,2,39,-13,34.2,35.63,1018.11,0,0
2022-11-02 15:37:49,993,46,-214,0,0,0,2,39,-13,34.2,35.63,1018.11,0,0
2022-11-02 15:37:49,993,46,-214,0,0,0,2,39,-13,34.2,35.63,1018.11,0,0
2022-11-02 15:37:49,993,46,-214,0,0,0,2,39,-13,34.2,35.63,1018.11,0,0
2022-11-02 15:37:49,993,46,-214,0,0,0,2,39,-13,34.2,35.63,1018.11,0,0
2022-11-02 15:37:49,993,46,-214,0,0,0,2,39,-13,34.2,35.63,1018.11,0,0
2022-11-02 15:37:49,993,46,-214,0,0,0,2,39,-13,34.2,35.63,1018.11,0,0
2022-11-02 15:37:49,1005,37,-201,0,0,0,3,42,-17,34.2,35.63,1018.07,0,0
2022-11-02 15:37:49,1005,37,-201,0,0,0,3,42,-17,34.2,35.63,1018.07,0,0
2022-11-02 15:37:49,1005,37,-201,0,0,0,3,42,-17,34.2,35.63,1018.07,0,0
2022-11-02 15:37:49,1005,37,-201,0,0,0,3,42,-17,34.2,35.63,1018.07,0,0
2022-11-02 15:37:49,1005,37,-201,0,0,0,3,42,-17,34.2,35.63,1018.07,0,0
2022-11-02 15:37:49,1005,37,-201,0,0,0,3,42,-17,34.2,35.63,1018.07,0,0
2022-11-02 15:37:49,1005,37,-201,0,0,0,3,42,-17,34.2,35.63,1018.07,0,0
2022-11-02 15:37:49,1005,37,-201,0,0,0,3,42,-17,34.2,35.63,1018.07,0,0
2022-11-02 15:37:49,1005,37,-201,0,0,0,3,42,-17,34.2,35.63,1018.07,0,0
2022-11-02 15:37:49,993,40,-208,0,0,0,3,39,-15,34.2,35.63,1018.07,0,0
2022-11-02 15:37:49,993,40,-208,0,0,0,3,39,-15,34.2,35.63,1018.07,0,0
2022-11-02 15:37:49,993,40,-208,0,0,0,3,39,-15,34.2,35.63,1018.07,0,0
2022-11-02 15:37:49,993,40,-208,0,0,0,3,39,-15,34.2,35.63,1018.07,0,0
2022-11-02 15:37:49,993,40,-208,0,0,0,3,39,-15,34.2,35.63,1018.07,0,0
2022-11-02 15:37:49,993,40,-208,0,0,0,3,39,-15,34.2,35.63,1018.07,0,0
2022-11-02 15:37:49,993,40,-208,0,0,0,3,39,-15,34.2,35.63,1018.07,0,0
2022-11-02 15:37:49,993,40,-208,0,0,0,3,39,-15,34.2,35.63,1018.07,0,0
2022-11-02 15:37:49,993,40,-208,0,0,0,3,39,-15,34.2,35.63,1018.07,0,0
2022-11-02 15:37:49,999,23,-193,0,0,0,2,41,-14,34.2,35.63,1018.07,0,0
2022-11-02 15:37:49,999,23,-193,0,0,0,2,41,-14,34.2,35.63,1018.07,0,0
2022-11-02 15:37:49,999,23,-193,0,0,0,2,41,-14,34.2,35.63,1018.07,0,0
2022-11-02 15:37:49,999,23,-193,0,0,0,2,41,-14,34.2,35.63,1018.07,0,0
2022-11-02 15:37:49,999,23,-193,0,0,0,2,41,-14,34.2,35.63,1018.07,0,0
2022-11-02 15:37:49,999,23,-193,0,0,0,2,41,-14,34.2,35.63,1018.07,0,0
2022-11-02 15:37:49,999,23,-193,0,0,0,2,41,-14,34.2,35.63,1018.07,0,0
2022-11-02 15:37:49,999,23,-193,0,0,0,2,41,-14,34.2,35.63,1018.07,0,0
2022-11-02 15:37:49,999,23,-193,0,0,0,2,41,-14,34.2,35.63,1018.07,0,0
2022-11-02 15:37:49,1001,29,-208,0,0,0,4,42,-16,34.2,35.63,1018.07,0,0
2022-11-02 15:37:49,1001,29,-208,0,0,0,4,42,-16,34.2,35.63,1018.07,0,0
2022-11-02 15:37:49,1001,29,-208,0,0,0,4,42,-16,34.2,35.63,1018.07,0,0
2022-11-02 15:37:49,1001,29,-208,0,0,0,4,42,-16,34.2,35.63,1018.07,0,0
2022-11-02 15:37:49,1001,29,-208,0,0,0,4,42,-16,34.2,35.63,1018.07,0,0
2022-11-02 15:37:49,1001,29,-208,0,0,0,4,42,-16,34.2,35.63,1018.07,0,0
2022-11-02 15:37:49,1001,29,-208,0,0,0,4,42,-16,34.2,35.63,1018.07,0,0
2022-11-02 15:37:49,1001,29,-208,0,0,0,4,42,-16,34.2,35.63,1018.07,0,0
2022-11-02 15:37:49,1001,29,-208,0,0,0,4,42,-16,34.2,35.63,1018.07,0,0
2022-11-02 15:37:49,999,37,-214,0,0,0,5,40,-11,34.2,35.63,1018.07,0,0
2022-11-02 15:37:49,999,37,-214,0,0,0,5,40,-11,34.2,35.63,1018.07,0,0
2022-11-02 15:37:49,999,37,-214,0,0,0,5,40,-11,34.2,35.63,1018.07,0,0
2022-11-02 15:37:49,999,37,-214,0,0,0,5,40,-11,34.2,35.63,1018.07,0,0
2022-11-02 15:37:49,999,37,-214,0,0,0,5,40,-11,34.2,35.63,1018.07,0,0
2022-11-02 15:37:49,999,37,-214,0,0,0,5,40,-11,34.2,35.63,1018.07,0,0
2022-11-02 15:37:49,999,37,-214,0,0,0,5,40,-11,34.2,35.63,1018.07,0,0
2022-11-02 15:37:49,999,37,-214,0,0,0,5,40,-11,34.2,35.63,1018.07,0,0
2022-11-02 15:37:49,999,37,-214,0,0,0,5,40,-11,34.2,35.63,1018.07,0,0
2022-11-02 15:37:49,993,33,-224,0,0,0,4,39,-10,34.2,35.63,1018.07,0,0
2022-11-02 15:37:49,993,33,-224,0,0,0,4,39,-10,34.2,35.63,1018.07,0,0
2022-11-02 15:37:49,993,33,-224,0,0,0,4,39,-10,34.2,35.63,1018.07,0,0
2022-11-02 15:37:49,993,33,-224,0,0,0,4,39,-10,34.2,35.63,1018.07,0,0
2022-11-02 15:37:49,993,33,-224,0,0,0,4,39,-10,34.2,35.63,1018.07,0,0
2022-11-02 15:37:49,993,33,-224,0,0,0,4,39,-10,34.2,35.63,1018.07,0,0
2022-11-02 15:37:49,993,33,-224,0,0,0,4,39,-10,34.2,35.63,1018.07,0,0
2022-11-02 15:37:49,993,33,-224,0,0,0,4,39,-10,34.2,35.63,1018.07,0,0
2022-11-02 15:37:49,993,33,-224,0,0,0,4,39,-10,34.2,35.63,1018.07,0,0
2022-11-02 15:37:49,1001,33,-206,0,0,0,4,41,-19,34.2,35.63,1018.07,0,0
2022-11-02 15:37:49,1001,33,-206,0,0,0,4,41,-19,34.2,35.63,1018.07,0,0
2022-11-02 15:37:49,1001,33,-206,0,0,0,4,41,-19,34.2,35.63,1018.07,0,0
2022-11-02 15:37:49,1001,33,-206,0,0,0,4,41,-19,34.2,35.63,1018.07,0,0
2022-11-02 15:37:49,1001,33,-206,0,0,0,4,41,-19,34.2,35.63,1018.07,0,0
2022-11-02 15:37:49,1001,33,-206,0,0,0,4,41,-19,34.2,35.63,1018.07,0,0
2022-11-02 15:37:49,1001,33,-206,0,0,0,4,41,-19,34.2,35.63,1018.07,0,0
2022-11-02 15:37:49,1001,33,-206,0,0,0,4,41,-19,34.2,35.63,1018.07,0,0
2022-11-02 15:37:49,1001,33,-206,0,0,0,4,41,-19,34.2,35.63,1018.07,0,0
2022-11-02 15:37:49,997,42,-238,0,0,1,5,41,-12,34.2,35.63,1018.07,0,0
2022-11-02 15:37:49,997,42,-238,0,0,1,5,41,-12,34.2,35.63,1018.07,0,0
2022-11-02 15:37:49,997,42,-238,0,0,1,5,41,-12,34.2,35.63,1018.07,0,0
2022-11-02 15:37:49,997,42,-238,0,0,1,5,41,-12,34.2,35.63,1018.07,0,0
2022-11-02 15:37:49,997,42,-238,0,0,1,5,41,-12,34.2,35.63,1018.07,0,0
2022-11-02 15:37:49,997,42,-238,0,0,1,5,41,-12,34.2,35.63,1018.07,0,0
2022-11-02 15:37:49,997,42,-238,0,0,1,5,41,-12,34.2,35.63,1018.07,0,0
2022-11-02 15:37:49,997,42,-238,0,0,1,5,41,-12,34.2,35.63,1018.07,0,0
2022-11-02 15:37:49,997,42,-238,0,0,1,5,41,-12,34.2,35.63,1018.07,0,0
2022-11-02 15:37:50,1005,29,-203,0,0,0,5,41,-14,34.2,35.63,1018.07,0,0
2022-11-02 15:37:50,1005,29,-203,0,0,0,5,41,-14,34.2,35.63,1018.07,0,0
2022-11-02 15:37:50,1005,29,-203,0,0,0,5,41,-14,34.2,35.63,1018.07,0,0
2022-11-02 15:37:50,1005,29,-203,0,0,0,5,41,-14,34.2,35.63,1018.07,0,0
2022-11-02 15:37:50,1005,29,-203,0,0,0,5,41,-14,34.2,35.63,1018.07,0,0
2022-11-02 15:37:50,1005,29,-203,0,0,0,5,41,-14,34.2,35.63,1018.07,0,0
2022-11-02 15:37:50,1005,29,-203,0,0,0,5,41,-14,34.2,35.63,1018.07,0,0
2022-11-02 15:37:50,1005,29,-203,0,0,0,5,41,-14,34.2,35.63,1018.07,0,0
2022-11-02 15:37:50,1005,29,-203,0,0,0,5,41,-14,34.2,35.63,1018.07,0,0
2022-11-02 15:37:50,999,25,-214,0,0,1,3,42,-15,34.2,35.63,1018.07,0,0
2022-11-02 15:37:50,999,25,-214,0,0,1,3,42,-15,34.2,35.63,1018.07,0,0
2022-11-02 15:37:50,999,25,-214,0,0,1,3,42,-15,34.2,35.63,1018.07,0,0
2022-11-02 15:37:50,999,25,-214,0,0,1,3,42,-15,34.2,35.63,1018.07,0,0
2022-11-02 15:37:50,999,25,-214,0,0,1,3,42,-15,34.2,35.63,1018.07,0,0
2022-11-02 15:37:50,999,25,-214,0,0,1,3,42,-15,34.2,35.63,1018.07,0,0
2022-11-02 15:37:50,999,25,-214,0,0,1,3,42,-15,34.2,35.63,1018.07,0,0
2022-11-02 15:37:50,999,25,-214,0,0,1,3,42,-15,34.2,35.63,1018.07,0,0
2022-11-02 15:37:50,999,25,-214,0,0,1,3,42,-15,34.2,35.63,1018.07,0,0
2022-11-02 15:37:50,995,33,-226,1,0,0,5,43,-11,34.2,35.64,1018.14,0,0
2022-11-02 15:37:50,995,33,-226,1,0,0,5,43,-11,34.2,35.64,1018.14,0,0
2022-11-02 15:37:50,995,33,-226,1,0,0,5,43,-11,34.2,35.64,1018.14,0,0
2022-11-02 15:37:50,995,33,-226,1,0,0,5,43,-11,34.2,35.64,1018.14,0,0
2022-11-02 15:37:50,995,33,-226,1,0,0,5,43,-11,34.2,35.64,1018.14,0,0
2022-11-02 15:37:50,995,33,-226,1,0,0,5,43,-11,34.2,35.64,1018.14,0,0
2022-11-02 15:37:50,995,33,-226,1,0,0,5,43,-11,34.2,35.64,1018.14,0,0
2022-11-02 15:37:50,995,33,-226,1,0,0,5,43,-11,34.2,35.64,1018.14,0,0
2022-11-02 15:37:50,995,33,-226,1,0,0,5,43,-11,34.2,35.64,1018.14,0,0
2022-11-02 15:37:50,1015,11,-214,0,1,0,4,41,-13,34.2,35.64,1018.14,0,0
2022-11-02 15:37:50,1015,11,-214,0,1,0,4,41,-13,34.2,35.64,1018.14,0,0
2022-11-02 15:37:50,1015,11,-214,0,1,0,4,41,-13,34.2,35.64,1018.14,0,0
2022-11-02 15:37:50,1015,11,-214,0,1,0,4,41,-13,34.2,35.64,1018.14,0,0
2022-11-02 15:37:50,1015,11,-214,0,1,0,4,41,-13,34.2,35.64,1018.14,0,0
2022-11-02 15:37:50,1015,11,-214,0,1,0,4,41,-13,34.2,35.64,1018.14,0,0
2022-11-02 15:37:50,1015,11,-214,0,1,0,4,41,-13,34.2,35.64,1018.14,0,0
2022-11-02 15:37:50,1015,11,-214,0,1,0,4,41,-13,34.2,35.64,1018.14,0,0
2022-11-02 15:37:50,1015,11,-214,0,1,0,4,41,-13,34.2,35.64,1018.14,0,0
2022-11-02 15:37:50,997,35,-206,0,1,0,3,40,-9,34.2,35.64,1018.14,0,0
2022-11-02 15:37:50,997,35,-206,0,1,0,3,40,-9,34.2,35.64,1018.14,0,0
2022-11-02 15:37:50,997,35,-206,0,1,0,3,40,-9,34.2,35.64,1018.14,0,0
2022-11-02 15:37:50,997,35,-206,0,1,0,3,40,-9,34.2,35.64,1018.14,0,0
2022-11-02 15:37:50,997,35,-206,0,1,0,3,40,-9,34.2,35.64,1018.14,0,0
2022-11-02 15:37:50,997,35,-206,0,1,0,3,40,-9,34.2,35.64,1018.14,0,0
2022-11-02 15:37:50,997,35,-206,0,1,0,3,40,-9,34.2,35.64,1018.14,0,0
2022-11-02 15:37:50,997,35,-206,0,1,0,3,40,-9,34.2,35.64,1018.14,0,0
2022-11-02 15:37:50,997,35,-206,0,1,0,3,40,-9,34.2,35.64,1018.14,0,0
2022-11-02 15:37:50,1011,29,-206,0,1,0,3,41,-14,34.2,35.64,1018.14,0,0
2022-11-02 15:37:50,1011,29,-206,0,1,0,3,41,-14,34.2,35.64,1018.14,0,0
2022-11-02 15:37:50,1011,29,-206,0,1,0,3,41,-14,34.2,35.64,1018.14,0,0
2022-11-02 15:37:50,1011,29,-206,0,1,0,3,41,-14,34.2,35.64,1018.14,0,0
2022-11-02 15:37:50,1011,29,-206,0,1,0,3,41,-14,34.2,35.64,1018.14,0,0
2022-11-02 15:37:50,1011,29,-206,0,1,0,3,41,-14,34.2,35.64,1018.14,0,0
2022-11-02 15:37:50,1011,29,-206,0,1,0,3,41,-14,34.2,35.64,1018.14,0,0
2022-11-02 15:37:50,1011,29,-206,0,1,0,3,41,-14,34.2,35.64,1018.14,0,0
2022-11-02 15:37:50,1011,29,-206,0,1,0,3,41,-14,34.2,35.64,1018.14,0,0
2022-11-02 15:37:50,1003,19,-199,-1,0,0,7,41,-13,34.2,35.64,1018.14,0,0
2022-11-02 15:37:50,1003,19,-199,-1,0,0,7,41,-13,34.2,35.64,1018.14,0,0
2022-11-02 15:37:50,1003,19,-199,-1,0,0,7,41,-13,34.2,35.64,1018.14,0,0
2022-11-02 15:37:50,1003,19,-199,-1,0,0,7,41,-13,34.2,35.64,1018.14,0,0
2022-11-02 15:37:50,1003,19,-199,-1,0,0,7,41,-13,34.2,35.64,1018.14,0,0
2022-11-02 15:37:50,1003,19,-199,-1,0,0,7,41,-13,34.2,35.64,1018.14,0,0
2022-11-02 15:37:50,1003,19,-199,-1,0,0,7,41,-13,34.2,35.64,1018.14,0,0
2022-11-02 15:37:50,1003,19,-199,-1,0,0,7,41,-13,34.2,35.64,1018.14,0,0
2022-11-02 15:37:50,1003,19,-199,-1,0,0,7,41,-13,34.2,35.64,1018.14,0,0
2022-11-02 15:37:50,1013,42,-204,0,2,0,5,40,-16,34.2,35.64,1018.14,0,0
2022-11-02 15:37:50,1013,42,-204,0,2,0,5,40,-16,34.2,35.64,1018.14,0,0
2022-11-02 15:37:50,1013,42,-204,0,2,0,5,40,-16,34.2,35.64,1018.14,0,0
2022-11-02 15:37:50,1013,42,-204,0,2,0,5,40,-16,34.2,35.64,1018.14,0,0
2022-11-02 15:37:50,1013,42,-204,0,2,0,5,40,-16,34.2,35.64,1018.14,0,0
2022-11-02 15:37:50,1013,42,-204,0,2,0,5,40,-16,34.2,35.64,1018.14,0,0
2022-11-02 15:37:50,1013,42,-204,0,2,0,5,40,-16,34.2,35.64,1018.14,0,0
2022-11-02 15:37:50,1013,42,-204,0,2,0,5,40,-16,34.2,35.64,1018.14,0,0
2022-11-02 15:37:50,1013,42,-204,0,2,0,5,40,-16,34.2,35.64,1018.14,0,0
2022-11-02 15:37:50,993,0,-191,-1,3,-2,2,40,-15,34.2,35.64,1018.14,0,0
2022-11-02 15:37:50,993,0,-191,-1,3,-2,2,40,-15,34.2,35.64,1018.14,0,0
2022-11-02 15:37:50,993,0,-191,-1,3,-2,2,40,-15,34.2,35.64,1018.14,0,0
2022-11-02 15:37:50,993,0,-191,-1,3,-2,2,40,-15,34.2,35.64,1018.14,0,0
2022-11-02 15:37:50,993,0,-191,-1,3,-2,2,40,-15,34.2,35.64,1018.14,0,0
2022-11-02 15:37:50,993,0,-191,-1,3,-2,2,40,-15,34.2,35.64,1018.14,0,0
2022-11-02 15:37:50,993,0,-191,-1,3,-2,2,40,-15,34.2,35.64,1018.14,0,0
2022-11-02 15:37:50,993,0,-191,-1,3,-2,2,40,-15,34.2,35.64,1018.14,0,0
2022-11-02 15:37:50,993,0,-191,-1,3,-2,2,40,-15,34.2,35.64,1018.14,0,0
2022-11-02 15:37:50,1015,50,-204,0,0,-1,5,43,-13,34.2,35.64,1018.14,0,0
2022-11-02 15:37:50,1015,50,-204,0,0,-1,5,43,-13,34.2,35.64,1018.14,0,0
2022-11-02 15:37:50,1015,50,-204,0,0,-1,5,43,-13,34.2,35.64,1018.14,0,0
2022-11-02 15:37:50,1015,50,-204,0,0,-1,5,43,-13,34.2,35.64,1018.14,0,0
2022-11-02 15:37:50,1015,50,-204,0,0,-1,5,43,-13,34.2,35.64,1018.14,0,0
2022-11-02 15:37:50,1015,50,-204,0,0,-1,5,43,-13,34.2,35.64,1018.14,0,0
2022-11-02 15:37:50,1015,50,-204,0,0,-1,5,43,-13,34.2,35.64,1018.14,0,0
2022-11-02 15:37:50,1015,50,-204,0,0,-1,5,43,-13,34.2,35.64,1018.14,0,0
2022-11-02 15:37:50,1015,50,-204,0,0,-1,5,43,-13,34.2,35.64,1018.14,0,0
2022-11-02 15:37:51,995,50,-201,0,-1,0,5,41,-10,34.2,35.64,1018.14,0,0
2022-11-02 15:37:51,995,50,-201,0,-1,0,5,41,-10,34.2,35.64,1018.14,0,0
2022-11-02 15:37:51,995,50,-201,0,-1,0,5,41,-10,34.2,35.64,1018.14,0,0
2022-11-02 15:37:51,995,50,-201,0,-1,0,5,41,-10,34.2,35.64,1018.14,0,0
2022-11-02 15:37:51,995,50,-201,0,-1,0,5,41,-10,34.2,35.64,1018.14,0,0
2022-11-02 15:37:51,995,50,-201,0,-1,0,5,41,-10,34.2,35.64,1018.14,0,0
2022-11-02 15:37:51,995,50,-201,0,-1,0,5,41,-10,34.2,35.64,1018.14,0,0
2022-11-02 15:37:51,995,50,-201,0,-1,0,5,41,-10,34.2,35.64,1018.14,0,0
2022-11-02 15:37:51,995,50,-201,0,-1,0,5,41,-10,34.2,35.64,1018.14,0,0
2022-11-02 15:37:51,1005,9,-204,0,0,0,5,41,-10,34.2,35.64,1018.14,0,0
2022-11-02 15:37:51,1005,9,-204,0,0,0,5,41,-10,34.2,35.64,1018.14,0,0
2022-11-02 15:37:51,1005,9,-204,0,0,0,5,41,-10,34.2,35.64,1018.14,0,0
2022-11-02 15:37:51,1005,9,-204,0,0,0,5,41,-10,34.2,35.64,1018.14,0,0
2022-11-02 15:37:51,1005,9,-204,0,0,0,5,41,-10,34.2,35.64,1018.14,0,0
2022-11-02 15:37:51,1005,9,-204,0,0,0,5,41,-10,34.2,35.64,1018.14,0,0
2022-11-02 15:37:51,1005,9,-204,0,0,0,5,41,-10,34.2,35.64,1018.14,0,0
2022-11-02 15:37:51,1005,9,-204,0,0,0,5,41,-10,34.2,35.64,1018.14,0,0
2022-11-02 15:37:51,1005,9,-204,0,0,0,5,41,-10,34.2,35.64,1018.14,0,0
2022-11-02 15:37:51,1001,21,-208,0,0,0,5,42,-11,34.2,35.65,1018.1,0,0
2022-11-02 15:37:51,1001,21,-208,0,0,0,5,42,-11,34.2,35.65,1018.1,0,0
2022-11-02 15:37:51,1001,21,-208,0,0,0,5,42,-11,34.2,35.65,1018.1,0,0
2022-11-02 15:37:51,1001,21,-208,0,0,0,5,42,-11,34.2,35.65,1018.1,0,0
2022-11-02 15:37:51,1001,21,-208,0,0,0,5,42,-11,34.2,35.65,1018.1,0,0
2022-11-02 15:37:51,1001,21,-208,0,0,0,5,42,-11,34.2,35.65,1018.1,0,0
2022-11-02 15:37:51,1001,21,-208,0,0,0,5,42,-11,34.2,35.65,1018.1,0,0
2022-11-02 15:37:51,1001,21,-208,0,0,0,5,42,-11,34.2,35.65,1018.1,0,0
2022-11-02 15:37:51,1001,21,-208,0,0,0,5,42,-11,34.2,35.65,1018.1,0,0
2022-11-02 15:37:51,999,37,-204,0,0,0,6,41,-7,34.2,35.65,1018.1,0,0
2022-11-02 15:37:51,999,37,-204,0,0,0,6,41,-7,34.2,35.65,1018.1,0,0
2022-11-02 15:37:51,999,37,-204,0,0,0,6,41,-7,34.2,35.65,1018.1,0,0
2022-11-02 15:37:51,999,37,-204,0,0,0,6,41,-7,34.2,35.65,1018.1,0,0
2022-11-02 15:37:51,999,37,-204,0,0,0,6,41,-7,34.2,35.65,1018.1,0,0
2022-11-02 15:37:51,999,37,-204,0,0,0,6,41,-7,34.2,35.65,1018.1,0,0
2022-11-02 15:37:51,999,37,-204,0,0,0,6,41,-7,34.2,35.65,1018.1,0,0
2022-11-02 15:37:51,999,37,-204,0,0,0,6,41,-7,34.2,35.65,1018.1,0,0
2022-11-02 15:37:51,999,37,-204,0,0,0,6,41,-7,34.2,35.65,1018.1,0,0
2022-11-02 15:37:51,1016,46,-193,0,0,0,6,41,-10,34.2,35.65,1018.1,0,0
2022-11-02 15:37:51,1016,46,-193,0,0,0,6,41,-10,34.2,35.65,1018.1,0,0
2022-11-02 15:37:51,1016,46,-193,0,0,0,6,41,-10,34.2,35.65,1018.1,0,0
2022-11-02 15:37:51,1016,46,-193,0,0,0,6,41,-10,34.2,35.65,1018.1,0,0
2022-11-02 15:37:51,1016,46,-193,0,0,0,6,41,-10,34.2,35.65,1018.1,0,0
2022-11-02 15:37:51,1016,46,-193,0,0,0,6,41,-10,34.2,35.65,1018.1,0,0
2022-11-02 15:37:51,1016,46,-193,0,0,0,6,41,-10,34.2,35.65,1018.1,0,0
2022-11-02 15:37:51,1016,46,-193,0,0,0,6,41,-10,34.2,35.65,1018.1,0,0
2022-11-02 15:37:51,1016,46,-193,0,0,0,6,41,-10,34.2,35.65,1018.1,0,0
2022-11-02 15:37:51,1003,39,-193,0,0,0,3,40,-12,34.2,35.65,1018.1,0,0
2022-11-02 15:37:51,1003,39,-193,0,0,0,3,40,-12,34.2,35.65,1018.1,0,0
2022-11-02 15:37:51,1003,39,-193,0,0,0,3,40,-12,34.2,35.65,1018.1,0,0
2022-11-02 15:37:51,1003,39,-193,0,0,0,3,40,-12,34.2,35.65,1018.1,0,0
2022-11-02 15:37:51,1003,39,-193,0,0,0,3,40,-12,34.2,35.65,1018.1,0,0
2022-11-02 15:37:51,1003,39,-193,0,0,0,3,40,-12,34.2,35.65,1018.1,0,0
2022-11-02 15:37:51,1003,39,-193,0,0,0,3,40,-12,34.2,35.65,1018.1,0,0
2022-11-02 15:37:51,1003,39,-193,0,0,0,3,40,-12,34.2,35.65,1018.1,0,0
2022-11-02 15:37:51,1003,39,-193,0,0,0,3,40,-12,34.2,35.65,1018.1,0,0
2022-11-02 15:37:51,999,46,-208,0,0,0,5,44,-6,34.2,35.65,1018.1,0,0
2022-11-02 15:37:51,999,46,-208,0,0,0,5,44,-6,34.2,35.65,1018.1,0,0
2022-11-02 15:37:51,999,46,-208,0,0,0,5,44,-6,34.2,35.65,1018.1,0,0
2022-11-02 15:37:51,999,46,-208,0,0,0,5,44,-6,34.2,35.65,1018.1,0,0
2022-11-02 15:37:51,999,46,-208,0,0,0,5,44,-6,34.2,35.65,1018.1,0,0
2022-11-02 15:37:51,999,46,-208,0,0,0,5,44,-6,34.2,35.65,1018.1,0,0
2022-11-02 15:37:51,999,46,-208,0,0,0,5,44,-6,34.2,35.65,1018.1,0,0
2022-11-02 15:37:51,999,46,-208,0,0,0,5,44,-6,34.2,35.65,1018.1,0,0
2022-11-02 15:37:51,999,46,-208,0,0,0,5,44,-6,34.2,35.65,1018.1,0,0
2022-11-02 15:37:51,987,35,-218,1,-1,-1,5,42,-9,34.2,35.65,1018.1,0,0
2022-11-02 15:37:51,987,35,-218,1,-1,-1,5,42,-9,34.2,35.65,1018.1,0,0
2022-11-02 15:37:51,987,35,-218,1,-1,-1,5,42,-9,34.2,35.65,1018.1,0,0
2022-11-02 15:37:51,987,35,-218,1,-1,-1,5,42,-9,34.2,35.65,1018.1,0,0
2022-11-02 15:37:51,987,35,-218,1,-1,-1,5,42,-9,34.2,35.65,1018.1,0,0
2022-11-02 15:37:51,987,35,-218,1,-1,-1,5,42,-9,34.2,35.65,1018.1,0,0
2022-11-02 15:37:51,987,35,-218,1,-1,-1,5,42,-9,34.2,35.65,1018.1,0,0
2022-11-02 15:37:51,987,35,-218,1,-1,-1,5,42,-9,34.2,35.65,1018.1,0,0
2022-11-02 15:37:51,987,35,-218,1,-1,-1,5,42,-9,34.2,35.65,1018.1,0,0
2022-11-02 15:37:51,999,31,-212,0,0,0,6,41,-12,34.2,35.65,1018.1,0,0
2022-11-02 15:37:51,999,31,-212,0,0,0,6,41,-12,34.2,35.65,1018.1,0,0
2022-11-02 15:37:51,999,31,-212,0,0,0,6,41,-12,34.2,35.65,1018.1,0,0
2022-11-02 15:37:51,999,31,-212,0,0,0,6,41,-12,34.2,35.65,1018.1,0,0
2022-11-02 15:37:51,999,31,-212,0,0,0,6,41,-12,34.2,35.65,1018.1,0,0
2022-11-02 15:37:51,999,31,-212,0,0,0,6,41,-12,34.2,35.65,1018.1,0,0
2022-11-02 15:37:51,999,31,-212,0,0,0,6,41,-12,34.2,35.65,1018.1,0,0
2022-11-02 15:37:51,999,31,-212,0,0,0,6,41,-12,34.2,35.65,1018.1,0,0
2022-11-02 15:37:51,999,31,-212,0,0,0,6,41,-12,34.2,35.65,1018.1,0,0
2022-11-02 15:37:51,1003,37,-210,0,0,0,6,42,-12,34.2,35.65,1018.1,0,0
2022-11-02 15:37:51,1003,37,-210,0,0,0,6,42,-12,34.2,35.65,1018.1,0,0
2022-11-02 15:37:51,1003,37,-210,0,0,0,6,42,-12,34.2,35.65,1018.1,0,0
2022-11-02 15:37:51,1003,37,-210,0,0,0,6,42,-12,34.2,35.65,1018.1,0,0
2022-11-02 15:37:51,1003,37,-210,0,0,0,6,42,-12,34.2,35.65,1018.1,0,0
2022-11-02 15:37:51,1003,37,-210,0,0,0,6,42,-12,34.2,35.65,1018.1,0,0
2022-11-02 15:37:51,1003,37,-210,0,0,0,6,42,-12,34.2,35.65,1018.1,0,0
2022-11-02 15:37:51,1003,37,-210,0,0,0,6,42,-12,34.2,35.65,1018.1,0,0
2022-11-02 15:37:51,1003,37,-210,0,0,0,6,42,-12,34.2,35.65,1018.1,0,0
2022-11-02 15:37:52,1001,39,-220,0,0,0,5,41,-13,34.2,35.65,1018.1,0,0
2022-11-02 15:37:52,1001,39,-220,0,0,0,5,41,-13,34.2,35.65,1018.1,0,0
2022-11-02 15:37:52,1001,39,-220,0,0,0,5,41,-13,34.2,35.65,1018.1,0,0
2022-11-02 15:37:52,1001,39,-220,0,0,0,5,41,-13,34.2,35.65,1018.1,0,0
2022-11-02 15:37:52,1001,39,-220,0,0,0,5,41,-13,34.2,35.65,1018.1,0,0
2022-11-02 15:37:52,1001,39,-220,0,0,0,5,41,-13,34.2,35.65,1018.1,0,0
2022-11-02 15:37:52,1001,39,-220,0,0,0,5,41,-13,34.2,35.65,1018.1,0,0
2022-11-02 15:37:52,1001,39,-220,0,0,0,5,41,-13,34.2,35.65,1018.1,0,0
2022-11-02 15:37:52,1001,39,-220,0,0,0,5,41,-13,34.2,35.65,1018.1,0,0
2022-11-02 15:37:52,995,33,-203,0,0,0,6,41,-13,34.2,35.65,1018.1,0,0
2022-11-02 15:37:52,995,33,-203,0,0,0,6,41,-13,34.2,35.65,1018.1,0,0
2022-11-02 15:37:52,995,33,-203,0,0,0,6,41,-13,34.2,35.65,1018.1,0,0
2022-11-02 15:37:52,995,33,-203,0,0,0,6,41,-13,34.2,35.65,1018.1,0,0
2022-11-02 15:37:52,995,33,-203,0,0,0,6,41,-13,34.2,35.65,1018.1,0,0
2022-11-02 15:37:52,995,33,-203,0,0,0,6,41,-13,34.2,35.65,1018.1,0,0
2022-11-02 15:37:52,995,33,-203,0,0,0,6,41,-13,34.2,35.65,1018.1,0,0
2022-11-02 15:37:52,995,33,-203,0,0,0,6,41,-13,34.2,35.65,1018.1,0,0
2022-11-02 15:37:52,995,33,-203,0,0,0,6,41,-13,34.2,35.65,1018.1,0,0
2022-11-02 15:37:52,1001,37,-216,0,0,0,7,40,-11,34.2,35.64,1018.14,0,0
2022-11-02 15:37:52,1001,37,-216,0,0,0,7,40,-11,34.2,35.64,1018.14,0,0
2022-11-02 15:37:52,1001,37,-216,0,0,0,7,40,-11,34.2,35.64,1018.14,0,0
2022-11-02 15:37:52,1001,37,-216,0,0,0,7,40,-11,34.2,35.64,1018.14,0,0
2022-11-02 15:37:52,1001,37,-216,0,0,0,7,40,-11,34.2,35.64,1018.14,0,0
2022-11-02 15:37:52,1001,37,-216,0,0,0,7,40,-11,34.2,35.64,1018.14,0,0
2022-11-02 15:37:52,1001,37,-216,0,0,0,7,40,-11,34.2,35.64,1018.14,0,0
2022-11-02 15:37:52,1001,37,-216,0,0,0,7,40,-11,34.2,35.64,1018.14,0,0
2022-11-02 15:37:52,1001,37,-216,0,0,0,7,40,-11,34.2,35.64,1018.14,0,0
2022-11-02 15:37:52,999,29,-201,1,1,0,6,40,-13,34.2,35.64,1018.14,0,0
2022-11-02 15:37:52,999,29,-201,1,1,0,6,40,-13,34.2,35.64,1018.14,0,0
2022-11-02 15:37:52,999,29,-201,1,1,0,6,40,-13,34.2,35.64,1018.14,0,0
2022-11-02 15:37:52,999,29,-201,1,1,0,6,40,-13,34.2,35.64,1018.14,0,0
2022-11-02 15:37:52,999,29,-201,1,1,0,6,40,-13,34.2,35.64,1018.14,0,0
2022-11-02 15:37:52,999,29,-201,1,1,0,6,40,-13,34.2,35.64,1018.14,0,0
2022-11-02 15:37:52,999,29,-201,1,1,0,6,40,-13,34.2,35.64,1018.14,0,0
2022-11-02 15:37:52,999,29,-201,1,1,0,6,40,-13,34.2,35.64,1018.14,0,0
2022-11-02 15:37:52,999,29,-201,1,1,0,6,40,-13,34.2,35.64,1018.14,0,0
2022-11-02 15:37:52,1001,31,-208,0,0,0,5,41,-18,34.2,35.64,1018.14,0,0
2022-11-02 15:37:52,1001,31,-208,0,0,0,5,41,-18,34.2,35.64,1018.14,0,0
2022-11-02 15:37:52,1001,31,-208,0,0,0,5,41,-18,34.2,35.64,1018.14,0,0
2022-11-02 15:37:52,1001,31,-208,0,0,0,5,41,-18,34.2,35.64,1018.14,0,0
2022-11-02 15:37:52,1001,31,-208,0,0,0,5,41,-18,34.2,35.64,1018.14,0,0
2022-11-02 15:37:52,1001,31,-208,0,0,0,5,41,-18,34.2,35.64,1018.14,0,0
2022-11-02 15:37:52,1001,31,-208,0,0,0,5,41,-18,34.2,35.64,1018.14,0,0
2022-11-02 15:37:52,1001,31,-208,0,0,0,5,41,-18,34.2,35.64,1018.14,0,0
2022-11-02 15:37:52,1001,31,-208,0,0,0,5,41,-18,34.2,35.64,1018.14,0,0
2022-11-02 15:37:52,1009,37,-208,0,-1,0,5,43,-8,34.2,35.64,1018.14,0,0
2022-11-02 15:37:52,1009,37,-208,0,-1,0,5,43,-8,34.2,35.64,1018.14,0,0
2022-11-02 15:37:52,1009,37,-208,0,-1,0,5,43,-8,34.2,35.64,1018.14,0,0
2022-11-02 15:37:52,1009,37,-208,0,-1,0,5,43,-8,34.2,35.64,1018.14,0,0
2022-11-02 15:37:52,1009,37,-208,0,-1,0,5,43,-8,34.2,35.64,1018.14,0,0
2022-11-02 15:37:52,1009,37,-208,0,-1,0,5,43,-8,34.2,35.64,1018.14,0,0
2022-11-02 15:37:52,1009,37,-208,0,-1,0,5,43,-8,34.2,35.64,1018.14,0,0
2022-11-02 15:37:52,1009,37,-208,0,-1,0,5,43,-8,34.2,35.64,1018.14,0,0
2022-11-02 15:37:52,1009,37,-208,0,-1,0,5,43,-8,34.2,35.64,1018.14,0,0
2022-11-02 15:37:52,999,31,-216,0,0,0,5,42,-8,34.2,35.64,1018.14,0,0
2022-11-02 15:37:52,999,31,-216,0,0,0,5,42,-8,34.2,35.64,1018.14,0,0
2022-11-02 15:37:52,999,31,-216,0,0,0,5,42,-8,34.2,35.64,1018.14,0,0
2022-11-02 15:37:52,999,31,-216,0,0,0,5,42,-8,34.2,35.64,1018.14,0,0
2022-11-02 15:37:52,999,31,-216,0,0,0,5,42,-8,34.2,35.64,1018.14,0,0
2022-11-02 15:37:52,999,31,-216,0,0,0,5,42,-8,34.2,35.64,1018.14,0,0
2022-11-02 15:37:52,999,31,-216,0,0,0,5,42,-8,34.2,35.64,1018.14,0,0
2022-11-02 15:37:52,999,31,-216,0,0,0,5,42,-8,34.2,35.64,1018.14,0,0
2022-11-02 15:37:52,999,31,-216,0,0,0,5,42,-8,34.2,35.64,1018.14,0,0
2022-11-02 15:37:52,1003,37,-208,0,0,0,6,40,-15,34.2,35.64,1018.14,0,0
2022-11-02 15:37:52,1003,37,-208,0,0,0,6,40,-15,34.2,35.64,1018.14,0,0
2022-11-02 15:37:52,1003,37,-208,0,0,0,6,40,-15,34.2,35.64,1018.14,0,0
2022-11-02 15:37:52,1003,37,-208,0,0,0,6,40,-15,34.2,35.64,1018.14,0,0
2022-11-02 15:37:52,1003,37,-208,0,0,0,6,40,-15,34.2,35.64,1018.14,0,0
2022-11-02 15:37:52,1003,37,-208,0,0,0,6,40,-15,34.2,35.64,1018.14,0,0
2022-11-02 15:37:52,1003,37,-208,0,0,0,6,40,-15,34.2,35.64,1018.14,0,0
2022-11-02 15:37:52,1003,37,-208,0,0,0,6,40,-15,34.2,35.64,1018.14,0,0
2022-11-02 15:37:52,1003,37,-208,0,0,0,6,40,-15,34.2,35.64,1018.14,0,0
2022-11-02 15:37:52,1005,37,-214,0,-1,1,5,40,-14,34.2,35.64,1018.14,0,0
2022-11-02 15:37:52,1005,37,-214,0,-1,1,5,40,-14,34.2,35.64,1018.14,0,0
2022-11-02 15:37:52,1005,37,-214,0,-1,1,5,40,-14,34.2,35.64,1018.14,0,0
2022-11-02 15:37:52,1005,37,-214,0,-1,1,5,40,-14,34.2,35.64,1018.14,0,0
2022-11-02 15:37:52,1005,37,-214,0,-1,1,5,40,-14,34.2,35.64,1018.14,0,0
2022-11-02 15:37:52,1005,37,-214,0,-1,1,5,40,-14,34.2,35.64,1018.14,0,0
2022-11-02 15:37:52,1005,37,-214,0,-1,1,5,40,-14,34.2,35.64,1018.14,0,0
2022-11-02 15:37:52,1005,37,-214,0,-1,1,5,40,-14,34.2,35.64,1018.14,0,0
2022-11-02 15:37:52,1005,37,-214,0,-1,1,5,40,-14,34.2,35.64,1018.14,0,0
2022-11-02 15:37:52,1007,25,-214,0,0,1,5,40,-9,34.2,35.64,1018.14,0,0
2022-11-02 15:37:52,1007,25,-214,0,0,1,5,40,-9,34.2,35.64,1018.14,0,0
2022-11-02 15:37:52,1007,25,-214,0,0,1,5,40,-9,34.2,35.64,1018.14,0,0
2022-11-02 15:37:52,1007,25,-214,0,0,1,5,40,-9,34.2,35.64,1018.14,0,0
2022-11-02 15:37:52,1007,25,-214,0,0,1,5,40,-9,34.2,35.64,1018.14,0,0
2022-11-02 15:37:52,1007,25,-214,0,0,1,5,40,-9,34.2,35.64,1018.14,0,0
2022-11-02 15:37:52,1007,25,-214,0,0,1,5,40,-9,34.2,35.64,1018.14,0,0
2022-11-02 15:37:52,1007,25,-214,0,0,1,5,40,-9,34.2,35.64,1018.14,0,0
2022-11-02 15:37:52,1007,25,-214,0,0,1,5,40,-9,34.2,35.64,1018.14,0,0
2022-11-02 15:37:53,1005,33,-220,0,1,1,2,42,-10,34.2,35.64,1018.14,0,0
2022-11-02 15:37:53,1005,33,-220,0,1,1,2,42,-10,34.2,35.64,1018.14,0,0
2022-11-02 15:37:53,1005,33,-220,0,1,1,2,42,-10,34.2,35.64,1018.14,0,0
2022-11-02 15:37:53,1005,33,-220,0,1,1,2,42,-10,34.2,35.64,1018.14,0,0
2022-11-02 15:37:53,1005,33,-220,0,1,1,2,42,-10,34.2,35.64,1018.14,0,0
2022-11-02 15:37:53,1005,33,-220,0,1,1,2,42,-10,34.2,35.64,1018.14,0,0
2022-11-02 15:37:53,1005,33,-220,0,1,1,2,42,-10,34.2,35.64,1018.14,0,0
2022-11-02 15:37:53,1005,33,-220,0,1,1,2,42,-10,34.2,35.64,1018.14,0,0
2022-11-02 15:37:53,1005,33,-220,0,1,1,2,42,-10,34.2,35.64,1018.14,0,0
2022-11-02 15:37:53,1001,21,-222,0,1,0,3,39,-12,34.2,35.64,1018.14,0,0
2022-11-02 15:37:53,1001,21,-222,0,1,0,3,39,-12,34.2,35.64,1018.14,0,0
2022-11-02 15:37:53,1001,21,-222,0,1,0,3,39,-12,34.2,35.64,1018.14,0,0
2022-11-02 15:37:53,1001,21,-222,0,1,0,3,39,-12,34.2,35.64,1018.14,0,0
2022-11-02 15:37:53,1001,21,-222,0,1,0,3,39,-12,34.2,35.64,1018.14,0,0
2022-11-02 15:37:53,1001,21,-222,0,1,0,3,39,-12,34.2,35.64,1018.14,0,0
2022-11-02 15:37:53,1001,21,-222,0,1,0,3,39,-12,34.2,35.64,1018.14,0,0
2022-11-02 15:37:53,1001,21,-222,0,1,0,3,39,-12,34.2,35.64,1018.14,0,0
2022-11-02 15:37:53,1001,21,-222,0,1,0,3,39,-12,34.2,35.64,1018.14,0,0
2022-11-02 15:37:53,1001,23,-210,0,1,0,5,39,-8,34.2,35.65,1018.14,0,0
2022-11-02 15:37:53,1001,23,-210,0,1,0,5,39,-8,34.2,35.65,1018.14,0,0
2022-11-02 15:37:53,1001,23,-210,0,1,0,5,39,-8,34.2,35.65,1018.14,0,0
2022-11-02 15:37:53,1001,23,-210,0,1,0,5,39,-8,34.2,35.65,1018.14,0,0
2022-11-02 15:37:53,1001,23,-210,0,1,0,5,39,-8,34.2,35.65,1018.14,0,0
2022-11-02 15:37:53,1001,23,-210,0,1,0,5,39,-8,34.2,35.65,1018.14,0,0
2022-11-02 15:37:53,1001,23,-210,0,1,0,5,39,-8,34.2,35.65,1018.14,0,0
2022-11-02 15:37:53,1001,23,-210,0,1,0,5,39,-8,34.2,35.65,1018.14,0,0
2022-11-02 15:37:53,1001,23,-210,0,1,0,5,39,-8,34.2,35.65,1018.14,0,0
2022-11-02 15:37:53,1001,29,-206,0,1,0,5,39,-11,34.2,35.65,1018.14,0,0
2022-11-02 15:37:53,1001,29,-206,0,1,0,5,39,-11,34.2,35.65,1018.14,0,0
2022-11-02 15:37:53,1001,29,-206,0,1,0,5,39,-11,34.2,35.65,1018.14,0,0
2022-11-02 15:37:53,1001,29,-206,0,1,0,5,39,-11,34.2,35.65,1018.14,0,0
2022-11-02 15:37:53,1001,29,-206,0,1,0,5,39,-11,34.2,35.65,1018.14,0,0
2022-11-02 15:37:53,1001,29,-206,0,1,0,5,39,-11,34.2,35.65,1018.14,0,0
2022-11-02 15:37:53,1001,29,-206,0,1,0,5,39,-11,34.2,35.65,1018.14,0,0
2022-11-02 15:37:53,1001,29,-206,0,1,0,5,39,-11,34.2,35.65,1018.14,0,0
2022-11-02 15:37:53,1001,29,-206,0,1,0,5,39,-11,34.2,35.65,1018.14,0,0
2022-11-02 15:37:53,1009,27,-204,0,0,0,5,40,-12,34.2,35.65,1018.14,0,0
2022-11-02 15:37:53,1009,27,-204,0,0,0,5,40,-12,34.2,35.65,1018.14,0,0
2022-11-02 15:37:53,1009,27,-204,0,0,0,5,40,-12,34.2,35.65,1018.14,0,0
2022-11-02 15:37:53,1009,27,-204,0,0,0,5,40,-12,34.2,35.65,1018.14,0,0
2022-11-02 15:37:53,1009,27,-204,0,0,0,5,40,-12,34.2,35.65,1018.14,0,0
2022-11-02 15:37:53,1009,27,-204,0,0,0,5,40,-12,34.2,35.65,1018.14,0,0
2022-11-02 15:37:53,1009,27,-204,0,0,0,5,40,-12,34.2,35.65,1018.14,0,0
2022-11-02 15:37:53,1009,27,-204,0,0,0,5,40,-12,34.2,35.65,1018.14,0,0
2022-11-02 15:37:53,1009,27,-204,0,0,0,5,40,-12,34.2,35.65,1018.14,0,0
2022-11-02 15:37:53,1001,27,-204,0,0,0,6,42,-12,34.2,35.65,1018.14,0,0
2022-11-02 15:37:53,1001,27,-204,0,0,0,6,42,-12,34.2,35.65,1018.14,0,0
2022-11-02 15:37:53,1001,27,-204,0,0,0,6,42,-12,34.2,35.65,1018.14,0,0
2022-11-02 15:37:53,1001,27,-204,0,0,0,6,42,-12,34.2,35.65,1018.14,0,0
2022-11-02 15:37:53,1001,27,-204,0,0,0,6,42,-12,34.2,35.65,1018.14,0,0
2022-11-02 15:37:53,1001,27,-204,0,0,0,6,42,-12,34.2,35.65,1018.14,0,0
2022-11-02 15:37:53,1001,27,-204,0,0,0,6,42,-12,34.2,35.65,1018.14,0,0
2022-11-02 15:37:53,1001,27,-204,0,0,0,6,42,-12,34.2,35.65,1018.14,0,0
2022-11-02 15:37:53,1001,27,-204,0,0,0,6,42,-12,34.2,35.65,1018.14,0,0
2022-11-02 15:37:53,1011,25,-195,-1,0,0,3,37,-11,34.2,35.65,1018.14,0,0
2022-11-02 15:37:53,1011,25,-195,-1,0,0,3,37,-11,34.2,35.65,1018.14,0,0
2022-11-02 15:37:53,1011,25,-195,-1,0,0,3,37,-11,34.2,35.65,1018.14,0,0
2022-11-02 15:37:53,1011,25,-195,-1,0,0,3,37,-11,34.2,35.65,1018.14,0,0
2022-11-02 15:37:53,1011,25,-195,-1,0,0,3,37,-11,34.2,35.65,1018.14,0,0
2022-11-02 15:37:53,1011,25,-195,-1,0,0,3,37,-11,34.2,35.65,1018.14,0,0
2022-11-02 15:37:53,1011,25,-195,-1,0,0,3,37,-11,34.2,35.65,1018.14,0,0
2022-11-02 15:37:53,1011,25,-195,-1,0,0,3,37,-11,34.2,35.65,1018.14,0,0
2022-11-02 15:37:53,1011,25,-195,-1,0,0,3,37,-11,34.2,35.65,1018.14,0,0
2022-11-02 15:37:53,1001,23,-224,0,0,0,6,41,-11,34.2,35.65,1018.14,0,0
2022-11-02 15:37:53,1001,23,-224,0,0,0,6,41,-11,34.2,35.65,1018.14,0,0
2022-11-02 15:37:53,1001,23,-224,0,0,0,6,41,-11,34.2,35.65,1018.14,0,0
2022-11-02 15:37:53,1001,23,-224,0,0,0,6,41,-11,34.2,35.65,1018.14,0,0
2022-11-02 15:37:53,1001,23,-224,0,0,0,6,41,-11,34.2,35.65,1018.14,0,0
2022-11-02 15:37:53,1001,23,-224,0,0,0,6,41,-11,34.2,35.65,1018.14,0,0
2022-11-02 15:37:53,1001,23,-224,0,0,0,6,41,-11,34.2,35.65,1018.14,0,0
2022-11-02 15:37:53,1001,23,-224,0,0,0,6,41,-11,34.2,35.65,1018.14,0,0
2022-11-02 15:37:53,1001,23,-224,0,0,0,6,41,-11,34.2,35.65,1018.14,0,0
2022-11-02 15:37:53,1005,19,-201,0,0,0,2,39,-8,34.2,35.65,1018.14,0,0
2022-11-02 15:37:53,1005,19,-201,0,0,0,2,39,-8,34.2,35.65,1018.14,0,0
2022-11-02 15:37:53,1005,19,-201,0,0,0,2,39,-8,34.2,35.65,1018.14,0,0
2022-11-02 15:37:53,1005,19,-201,0,0,0,2,39,-8,34.2,35.65,1018.14,0,0
2022-11-02 15:37:53,1005,19,-201,0,0,0,2,39,-8,34.2,35.65,1018.14,0,0
2022-11-02 15:37:53,1005,19,-201,0,0,0,2,39,-8,34.2,35.65,1018.14,0,0
2022-11-02 15:37:53,1005,19,-201,0,0,0,2,39,-8,34.2,35.65,1018.14,0,0
2022-11-02 15:37:53,1005,19,-201,0,0,0,2,39,-8,34.2,35.65,1018.14,0,0
2022-11-02 15:37:53,1005,19,-201,0,0,0,2,39,-8,34.2,35.65,1018.14,0,0
2022-11-02 15:37:53,999,23,-210,0,0,0,6,39,-11,34.2,35.65,1018.14,0,0
2022-11-02 15:37:53,999,23,-210,0,0,0,6,39,-11,34.2,35.65,1018.14,0,0
2022-11-02 15:37:53,999,23,-210,0,0,0,6,39,-11,34.2,35.65,1018.14,0,0
2022-11-02 15:37:53,999,23,-210,0,0,0,6,39,-11,34.2,35.65,1018.14,0,0
2022-11-02 15:37:53,999,23,-210,0,0,0,6,39,-11,34.2,35.65,1018.14,0,0
2022-11-02 15:37:53,999,23,-210,0,0,0,6,39,-11,34.2,35.65,1018.14,0,0
2022-11-02 15:37:53,999,23,-210,0,0,0,6,39,-11,34.2,35.65,1018.14,0,0
2022-11-02 15:37:53,999,23,-210,0,0,0,6,39,-11,34.2,35.65,1018.14,0,0
2022-11-02 15:37:53,999,23,-210,0,0,0,6,39,-11,34.2,35.65,1018.14,0,0
2022-11-02 15:37:54,1005,27,-218,0,0,0,5,40,-9,34.2,35.65,1018.14,0,0
2022-11-02 15:37:54,1005,27,-218,0,0,0,5,40,-9,34.2,35.65,1018.14,0,0
2022-11-02 15:37:54,1005,27,-218,0,0,0,5,40,-9,34.2,35.65,1018.14,0,0
2022-11-02 15:37:54,1005,27,-218,0,0,0,5,40,-9,34.2,35.65,1018.14,0,0
2022-11-02 15:37:54,1005,27,-218,0,0,0,5,40,-9,34.2,35.65,1018.14,0,0
2022-11-02 15:37:54,1005,27,-218,0,0,0,5,40,-9,34.2,35.65,1018.14,0,0
2022-11-02 15:37:54,1005,27,-218,0,0,0,5,40,-9,34.2,35.65,1018.14,0,0
2022-11-02 15:37:54,1005,27,-218,0,0,0,5,40,-9,34.2,35.65,1018.14,0,0
2022-11-02 15:37:54,1005,27,-218,0,0,0,5,40,-9,34.2,35.65,1018.14,0,0
2022-11-02 15:37:54,999,27,-206,0,0,0,8,41,-10,34.2,35.65,1018.14,0,0
2022-11-02 15:37:54,999,27,-206,0,0,0,8,41,-10,34.2,35.65,1018.14,0,0
2022-11-02 15:37:54,999,27,-206,0,0,0,8,41,-10,34.2,35.65,1018.14,0,0
2022-11-02 15:37:54,999,27,-206,0,0,0,8,41,-10,34.2,35.65,1018.14,0,0
2022-11-02 15:37:54,999,27,-206,0,0,0,8,41,-10,34.2,35.65,1018.14,0,0
2022-11-02 15:37:54,999,27,-206,0,0,0,8,41,-10,34.2,35.65,1018.14,0,0
2022-11-02 15:37:54,999,27,-206,0,0,0,8,41,-10,34.2,35.65,1018.14,0,0
2022-11-02 15:37:54,999,27,-206,0,0,0,8,41,-10,34.2,35.65,1018.14,0,0
2022-11-02 15:37:54,999,27,-206,0,0,0,8,41,-10,34.2,35.65,1018.14,0,0
2022-11-02 15:37:54,1007,33,-210,0,0,0,5,39,-13,34.2,35.64,1018.19,0,0
2022-11-02 15:37:54,1007,33,-210,0,0,0,5,39,-13,34.2,35.64,1018.19,0,0
2022-11-02 15:37:54,1007,33,-210,0,0,0,5,39,-13,34.2,35.64,1018.19,0,0
2022-11-02 15:37:54,1007,33,-210,0,0,0,5,39,-13,34.2,35.64,1018.19,0,0
2022-11-02 15:37:54,1007,33,-210,0,0,0,5,39,-13,34.2,35.64,1018.19,0,0
2022-11-02 15:37:54,1007,33,-210,0,0,0,5,39,-13,34.2,35.64,1018.19,0,0
2022-11-02 15:37:54,1007,33,-210,0,0,0,5,39,-13,34.2,35.64,1018.19,0,0
2022-11-02 15:37:54,1007,33,-210,0,0,0,5,39,-13,34.2,35.64,1018.19,0,0
2022-11-02 15:37:54,1007,33,-210,0,0,0,5,39,-13,34.2,35.64,1018.19,0,0
2022-11-02 15:37:54,995,23,-212,0,0,0,8,40,-13,34.2,35.64,1018.19,0,0
2022-11-02 15:37:54,995,23,-212,0,0,0,8,40,-13,34.2,35.64,1018.19,0,0
2022-11-02 15:37:54,995,23,-212,0,0,0,8,40,-13,34.2,35.64,1018.19,0,0
2022-11-02 15:37:54,995,23,-212,0,0,0,8,40,-13,34.2,35.64,1018.19,0,0
2022-11-02 15:37:54,995,23,-212,0,0,0,8,40,-13,34.2,35.64,1018.19,0,0
2022-11-02 15:37:54,995,23,-212,0,0,0,8,40,-13,34.2,35.64,1018.19,0,0
2022-11-02 15:37:54,995,23,-212,0,0,0,8,40,-13,34.2,35.64,1018.19,0,0
2022-11-02 15:37:54,995,23,-212,0,0,0,8,40,-13,34.2,35.64,1018.19,0,0
2022-11-02 15:37:54,995,23,-212,0,0,0,8,40,-13,34.2,35.64,1018.19,0,0
2022-11-02 15:37:54,1001,39,-214,0,0,0,4,41,-15,34.2,35.64,1018.19,0,0
2022-11-02 15:37:54,1001,39,-214,0,0,0,4,41,-15,34.2,35.64,1018.19,0,0
2022-11-02 15:37:54,1001,39,-214,0,0,0,4,41,-15,34.2,35.64,1018.19,0,0
2022-11-02 15:37:54,1001,39,-214,0,0,0,4,41,-15,34.2,35.64,1018.19,0,0
2022-11-02 15:37:54,1001,39,-214,0,0,0,4,41,-15,34.2,35.64,1018.19,0,0
2022-11-02 15:37:54,1001,39,-214,0,0,0,4,41,-15,34.2,35.64,1018.19,0,0
2022-11-02 15:37:54,1001,39,-214,0,0,0,4,41,-15,34.2,35.64,1018.19,0,0
2022-11-02 15:37:54,1001,39,-214,0,0,0,4,41,-15,34.2,35.64,1018.19,0,0
2022-11-02 15:37:54,1001,39,-214,0,0,0,4,41,-15,34.2,35.64,1018.19,0,0
2022-11-02 15:37:54,997,40,-218,0,0,0,4,41,-10,34.2,35.64,1018.19,0,0
2022-11-02 15:37:54,997,40,-218,0,0,0,4,41,-10,34.2,35.64,1018.19,0,0
2022-11-02 15:37:54,997,40,-218,0,0,0,4,41,-10,34.2,35.64,1018.19,0,0
2022-11-02 15:37:54,997,40,-218,0,0,0,4,41,-10,34.2,35.64,1018.19,0,0
2022-11-02 15:37:54,997,40,-218,0,0,0,4,41,-10,34.2,35.64,1018.19,0,0
2022-11-02 15:37:54,997,40,-218,0,0,0,4,41,-10,34.2,35.64,1018.19,0,0
2022-11-02 15:37:54,997,40,-218,0,0,0,4,41,-10,34.2,35.64,1018.19,0,0
2022-11-02 15:37:54,997,40,-218,0,0,0,4,41,-10,34.2,35.64,1018.19,0,0
2022-11-02 15:37:54,997,40,-218,0,0,0,4,41,-10,34.2,35.64,1018.19,0,0
2022-11-02 15:37:54,999,29,-224,0,0,0,5,42,-10,34.2,35.64,1018.19,0,0
2022-11-02 15:37:54,999,29,-224,0,0,0,5,42,-10,34.2,35.64,1018.19,0,0
2022-11-02 15:37:54,999,29,-224,0,0,0,5,42,-10,34.2,35.64,1018.19,0,0
2022-11-02 15:37:54,999,29,-224,0,0,0,5,42,-10,34.2,35.64,1018.19,0,0
2022-11-02 15:37:54,999,29,-224,0,0,0,5,42,-10,34.2,35.64,1018.19,0,0
2022-11-02 15:37:54,999,29,-224,0,0,0,5,42,-10,34.2,35.64,1018.19,0,0
2022-11-02 15:37:54,999,29,-224,0,0,0,5,42,-10,34.2,35.64,1018.19,0,0
2022-11-02 15:37:54,999,29,-224,0,0,0,5,42,-10,34.2,35.64,1018.19,0,0
2022-11-02 15:37:54,999,29,-224,0,0,0,5,42,-10,34.2,35.64,1018.19,0,0
2022-11-02 15:37:54,995,25,-214,0,0,0,2,39,-7,34.2,35.64,1018.19,0,0
2022-11-02 15:37:54,995,25,-214,0,0,0,2,39,-7,34.2,35.64,1018.19,0,0
2022-11-02 15:37:54,995,25,-214,0,0,0,2,39,-7,34.2,35.64,1018.19,0,0
2022-11-02 15:37:54,995,25,-214,0,0,0,2,39,-7,34.2,35.64,1018.19,0,0
2022-11-02 15:37:54,995,25,-214,0,0,0,2,39,-7,34.2,35.64,1018.19,0,0
2022-11-02 15:37:54,995,25,-214,0,0,0,2,39,-7,34.2,35.64,1018.19,0,0
2022-11-02 15:37:54,995,25,-214,0,0,0,2,39,-7,34.2,35.64,1018.19,0,0
2022-11-02 15:37:54,995,25,-214,0,0,0,2,39,-7,34.2,35.64,1018.19,0,0
2022-11-02 15:37:54,995,25,-214,0,0,0,2,39,-7,34.2,35.64,1018.19,0,0
2022-11-02 15:37:54,1001,27,-216,0,0,0,3,40,-4,34.2,35.64,1018.19,0,0
2022-11-02 15:37:54,1001,27,-216,0,0,0,3,40,-4,34.2,35.64,1018.19,0,0
2022-11-02 15:37:54,1001,27,-216,0,0,0,3,40,-4,34.2,35.64,1018.19,0,0
2022-11-02 15:37:54,1001,27,-216,0,0,0,3,40,-4,34.2,35.64,1018.19,0,0
2022-11-02 15:37:54,1001,27,-216,0,0,0,3,40,-4,34.2,35.64,1018.19,0,0
2022-11-02 15:37:54,1001,27,-216,0,0,0,3,40,-4,34.2,35.64,1018.19,0,0
2022-11-02 15:37:54,1001,27,-216,0,0,0,3,40,-4,34.2,35.64,1018.19,0,0
2022-11-02 15:37:54,1001,27,-216,0,0,0,3,40,-4,34.2,35.64,1018.19,0,0
2022-11-02 15:37:54,1001,27,-216,0,0,0,3,40,-4,34.2,35.64,1018.19,0,0
2022-11-02 15:37:54,999,27,-224,0,0,0,2,41,-9,34.2,35.64,1018.19,0,0
2022-11-02 15:37:54,999,27,-224,0,0,0,2,41,-9,34.2,35.64,1018.19,0,0
2022-11-02 15:37:54,999,27,-224,0,0,0,2,41,-9,34.2,35.64,1018.19,0,0
2022-11-02 15:37:54,999,27,-224,0,0,0,2,41,-9,34.2,35.64,1018.19,0,0
2022-11-02 15:37:54,999,27,-224,0,0,0,2,41,-9,34.2,35.64,1018.19,0,0
2022-11-02 15:37:54,999,27,-224,0,0,0,2,41,-9,34.2,35.64,1018.19,0,0
2022-11-02 15:37:54,999,27,-224,0,0,0,2,41,-9,34.2,35.64,1018.19,0,0
2022-11-02 15:37:54,999,27,-224,0,0,0,2,41,-9,34.2,35.64,1018.19,0,0
2022-11-02 15:37:54,999,27,-224,0,0,0,2,41,-9,34.2,35.64,1018.19,0,0
2022-11-02 15:37:55,1001,33,-222,0,0,0,6,39,-14,34.2,35.64,1018.19,0,0
2022-11-02 15:37:55,1001,33,-222,0,0,0,6,39,-14,34.2,35.64,1018.19,0,0
2022-11-02 15:37:55,1001,33,-222,0,0,0,6,39,-14,34.2,35.64,1018.19,0,0
2022-11-02 15:37:55,1001,33,-222,0,0,0,6,39,-14,34.2,35.64,1018.19,0,0
2022-11-02 15:37:55,1001,33,-222,0,0,0,6,39,-14,34.2,35.64,1018.19,0,0
2022-11-02 15:37:55,1001,33,-222,0,0,0,6,39,-14,34.2,35.64,1018.19,0,0
2022-11-02 15:37:55,1001,33,-222,0,0,0,6,39,-14,34.2,35.64,1018.19,0,0
2022-11-02 15:37:55,1001,33,-222,0,0,0,6,39,-14,34.2,35.64,1018.19,0,0
2022-11-02 15:37:55,1001,33,-222,0,0,0,6,39,-14,34.2,35.64,1018.19,0,0
2022-11-02 15:37:55,999,19,-218,0,1,0,4,41,-10,34.2,35.64,1018.19,0,0
2022-11-02 15:37:55,999,19,-218,0,1,0,4,41,-10,34.2,35.64,1018.19,0,0
2022-11-02 15:37:55,999,19,-218,0,1,0,4,41,-10,34.2,35.64,1018.19,0,0
2022-11-02 15:37:55,999,19,-218,0,1,0,4,41,-10,34.2,35.64,1018.19,0,0
2022-11-02 15:37:55,999,19,-218,0,1,0,4,41,-10,34.2,35.64,1018.19,0,0
2022-11-02 15:37:55,999,19,-218,0,1,0,4,41,-10,34.2,35.64,1018.19,0,0
2022-11-02 15:37:55,999,19,-218,0,1,0,4,41,-10,34.2,35.64,1018.19,0,0
2022-11-02 15:37:55,999,19,-218,0,1,0,4,41,-10,34.2,35.64,1018.19,0,0
2022-11-02 15:37:55,999,19,-218,0,1,0,4,41,-10,34.2,35.64,1018.19,0,0
2022-11-02 15:37:55,999,33,-214,0,0,0,4,40,-11,34.2,35.66,1018.18,0,0
2022-11-02 15:37:55,999,33,-214,0,0,0,4,40,-11,34.2,35.66,1018.18,0,0
2022-11-02 15:37:55,999,33,-214,0,0,0,4,40,-11,34.2,35.66,1018.18,0,0
2022-11-02 15:37:55,999,33,-214,0,0,0,4,40,-11,34.2,35.66,1018.18,0,0
2022-11-02 15:37:55,999,33,-214,0,0,0,4,40,-11,34.2,35.66,1018.18,0,0
2022-11-02 15:37:55,999,33,-214,0,0,0,4,40,-11,34.2,35.66,1018.18,0,0
2022-11-02 15:37:55,999,33,-214,0,0,0,4,40,-11,34.2,35.66,1018.18,0,0
2022-11-02 15:37:55,999,33,-214,0,0,0,4,40,-11,34.2,35.66,1018.18,0,0
2022-11-02 15:37:55,999,33,-214,0,0,0,4,40,-11,34.2,35.66,1018.18,0,0
2022-11-02 15:37:55,1005,29,-220,0,1,0,5,37,-11,34.2,35.66,1018.18,0,0
2022-11-02 15:37:55,1005,29,-220,0,1,0,5,37,-11,34.2,35.66,1018.18,0,0
2022-11-02 15:37:55,1005,29,-220,0,1,0,5,37,-11,34.2,35.66,1018.18,0,0
2022-11-02 15:37:55,1005,29,-220,0,1,0,5,37,-11,34.2,35.66,1018.18,0,0
2022-11-02 15:37:55,1005,29,-220,0,1,0,5,37,-11,34.2,35.66,1018.18,0,0
2022-11-02 15:37:55,1005,29,-220,0,1,0,5,37,-11,34.2,35.66,1018.18,0,0
2022-11-02 15:37:55,1005,29,-220,0,1,0,5,37,-11,34.2,35.66,1018.18,0,0
2022-11-02 15:37:55,1005,29,-220,0,1,0,5,37,-11,34.2,35.66,1018.18,0,0
2022-11-02 15:37:55,1005,29,-220,0,1,0,5,37,-11,34.2,35.66,1018.18,0,0
2022-11-02 15:37:55,1007,31,-214,0,2,0,5,41,-12,34.2,35.66,1018.18,0,0
2022-11-02 15:37:55,1007,31,-214,0,2,0,5,41,-12,34.2,35.66,1018.18,0,0
2022-11-02 15:37:55,1007,31,-214,0,2,0,5,41,-12,34.2,35.66,1018.18,0,0
2022-11-02 15:37:55,1007,31,-214,0,2,0,5,41,-12,34.2,35.66,1018.18,0,0
2022-11-02 15:37:55,1007,31,-214,0,2,0,5,41,-12,34.2,35.66,1018.18,0,0
2022-11-02 15:37:55,1007,31,-214,0,2,0,5,41,-12,34.2,35.66,1018.18,0,0
2022-11-02 15:37:55,1007,31,-214,0,2,0,5,41,-12,34.2,35.66,1018.18,0,0
2022-11-02 15:37:55,1007,31,-214,0,2,0,5,41,-12,34.2,35.66,1018.18,0,0
2022-11-02 15:37:55,1007,31,-214,0,2,0,5,41,-12,34.2,35.66,1018.18,0,0
2022-11-02 15:37:55,1003,21,-199,0,1,0,4,38,-10,34.2,35.66,1018.18,0,0
2022-11-02 15:37:55,1003,21,-199,0,1,0,4,38,-10,34.2,35.66,1018.18,0,0
2022-11-02 15:37:55,1003,21,-199,0,1,0,4,38,-10,34.2,35.66,1018.18,0,0
2022-11-02 15:37:55,1003,21,-199,0,1,0,4,38,-10,34.2,35.66,1018.18,0,0
2022-11-02 15:37:55,1003,21,-199,0,1,0,4,38,-10,34.2,35.66,1018.18,0,0
2022-11-02 15:37:55,1003,21,-199,0,1,0,4,38,-10,34.2,35.66,1018.18,0,0
2022-11-02 15:37:55,1003,21,-199,0,1,0,4,38,-10,34.2,35.66,1018.18,0,0
2022-11-02 15:37:55,1003,21,-199,0,1,0,4,38,-10,34.2,35.66,1018.18,0,0
2022-11-02 15:37:55,1003,21,-199,0,1,0,4,38,-10,34.2,35.66,1018.18,0,0
2022-11-02 15:37:55,999,23,-206,0,1,0,4,41,-16,34.2,35.66,1018.18,0,0
2022-11-02 15:37:55,999,23,-206,0,1,0,4,41,-16,34.2,35.66,1018.18,0,0
2022-11-02 15:37:55,999,23,-206,0,1,0,4,41,-16,34.2,35.66,1018.18,0,0
2022-11-02 15:37:55,999,23,-206,0,1,0,4,41,-16,34.2,35.66,1018.18,0,0
2022-11-02 15:37:55,999,23,-206,0,1,0,4,41,-16,34.2,35.66,1018.18,0,0
2022-11-02 15:37:55,999,23,-206,0,1,0,4,41,-16,34.2,35.66,1018.18,0,0
2022-11-02 15:37:55,999,23,-206,0,1,0,4,41,-16,34.2,35.66,1018.18,0,0
2022-11-02 15:37:55,999,23,-206,0,1,0,4,41,-16,34.2,35.66,1018.18,0,0
2022-11-02 15:37:55,999,23,-206,0,1,0,4,41,-16,34.2,35.66,1018.18,0,0
2022-11-02 15:37:55,997,23,-212,0,1,0,6,40,-14,34.2,35.66,1018.18,0,0
2022-11-02 15:37:55,997,23,-212,0,1,0,6,40,-14,34.2,35.66,1018.18,0,0
2022-11-02 15:37:55,997,23,-212,0,1,0,6,40,-14,34.2,35.66,1018.18,0,0
2022-11-02 15:37:55,997,23,-212,0,1,0,6,40,-14,34.2,35.66,1018.18,0,0
2022-11-02 15:37:55,997,23,-212,0,1,0,6,40,-14,34.2,35.66,1018.18,0,0
2022-11-02 15:37:55,997,23,-212,0,1,0,6,40,-14,34.2,35.66,1018.18,0,0
2022-11-02 15:37:55,997,23,-212,0,1,0,6,40,-14,34.2,35.66,1018.18,0,0
2022-11-02 15:37:55,997,23,-212,0,1,0,6,40,-14,34.2,35.66,1018.18,0,0
2022-11-02 15:37:55,997,23,-212,0,1,0,6,40,-14,34.2,35.66,1018.18,0,0
2022-11-02 15:37:55,1001,15,-208,0,0,0,5,40,-16,34.2,35.66,1018.18,0,0
2022-11-02 15:37:55,1001,15,-208,0,0,0,5,40,-16,34.2,35.66,1018.18,0,0
2022-11-02 15:37:55,1001,15,-208,0,0,0,5,40,-16,34.2,35.66,1018.18,0,0
2022-11-02 15:37:55,1001,15,-208,0,0,0,5,40,-16,34.2,35.66,1018.18,0,0
2022-11-02 15:37:55,1001,15,-208,0,0,0,5,40,-16,34.2,35.66,1018.18,0,0
2022-11-02 15:37:55,1001,15,-208,0,0,0,5,40,-16,34.2,35.66,1018.18,0,0
2022-11-02 15:37:55,1001,15,-208,0,0,0,5,40,-16,34.2,35.66,1018.18,0,0
2022-11-02 15:37:55,1001,15,-208,0,0,0,5,40,-16,34.2,35.66,1018.18,0,0
2022-11-02 15:37:55,1001,15,-208,0,0,0,5,40,-16,34.2,35.66,1018.18,0,0
2022-11-02 15:37:55,995,27,-212,0,0,0,6,42,-12,34.2,35.66,1018.18,0,0
2022-11-02 15:37:55,995,27,-212,0,0,0,6,42,-12,34.2,35.66,1018.18,0,0
2022-11-02 15:37:55,995,27,-212,0,0,0,6,42,-12,34.2,35.66,1018.18,0,0
2022-11-02 15:37:55,995,27,-212,0,0,0,6,42,-12,34.2,35.66,1018.18,0,0
2022-11-02 15:37:55,995,27,-212,0,0,0,6,42,-12,34.2,35.66,1018.18,0,0
2022-11-02 15:37:55,995,27,-212,0,0,0,6,42,-12,34.2,35.66,1018.18,0,0
2022-11-02 15:37:55,995,27,-212,0,0,0,6,42,-12,34.2,35.66,1018.18,0,0
2022-11-02 15:37:55,995,27,-212,0,0,0,6,42,-12,34.2,35.66,1018.18,0,0
2022-11-02 15:37:55,995,27,-212,0,0,0,6,42,-12,34.2,35.66,1018.18,0,0
2022-11-02 15:37:56,1005,27,-206,0,0,0,5,41,-10,34.2,35.66,1018.18,0,0
2022-11-02 15:37:56,1005,27,-206,0,0,0,5,41,-10,34.2,35.66,1018.18,0,0
2022-11-02 15:37:56,1005,27,-206,0,0,0,5,41,-10,34.2,35.66,1018.18,0,0
2022-11-02 15:37:56,1005,27,-206,0,0,0,5,41,-10,34.2,35.66,1018.18,0,0
2022-11-02 15:37:56,1005,27,-206,0,0,0,5,41,-10,34.2,35.66,1018.18,0,0
2022-11-02 15:37:56,1005,27,-206,0,0,0,5,41,-10,34.2,35.66,1018.18,0,0
2022-11-02 15:37:56,1005,27,-206,0,0,0,5,41,-10,34.2,35.66,1018.18,0,0
2022-11-02 15:37:56,1005,27,-206,0,0,0,5,41,-10,34.2,35.66,1018.18,0,0
2022-11-02 15:37:56,1005,27,-206,0,0,0,5,41,-10,34.2,35.66,1018.18,0,0
2022-11-02 15:37:56,997,29,-206,0,0,0,5,41,-12,34.2,35.66,1018.18,0,0
2022-11-02 15:37:56,997,29,-206,0,0,0,5,41,-12,34.2,35.66,1018.18,0,0
2022-11-02 15:37:56,997,29,-206,0,0,0,5,41,-12,34.2,35.66,1018.18,0,0
2022-11-02 15:37:56,997,29,-206,0,0,0,5,41,-12,34.2,35.66,1018.18,0,0
2022-11-02 15:37:56,997,29,-206,0,0,0,5,41,-12,34.2,35.66,1018.18,0,0
2022-11-02 15:37:56,997,29,-206,0,0,0,5,41,-12,34.2,35.66,1018.18,0,0
2022-11-02 15:37:56,997,29,-206,0,0,0,5,41,-12,34.2,35.66,1018.18,0,0
2022-11-02 15:37:56,997,29,-206,0,0,0,5,41,-12,34.2,35.66,1018.18,0,0
2022-11-02 15:37:56,997,29,-206,0,0,0,5,41,-12,34.2,35.66,1018.18,0,0
2022-11-02 15:37:56,1001,25,-212,0,0,0,7,40,-15,34.2,35.66,1018.19,0,0
2022-11-02 15:37:56,1001,25,-212,0,0,0,7,40,-15,34.2,35.66,1018.19,0,0
2022-11-02 15:37:56,1001,25,-212,0,0,0,7,40,-15,34.2,35.66,1018.19,0,0
2022-11-02 15:37:56,1001,25,-212,0,0,0,7,40,-15,34.2,35.66,1018.19,0,0
2022-11-02 15:37:56,1001,25,-212,0,0,0,7,40,-15,34.2,35.66,1018.19,0,0
2022-11-02 15:37:56,1001,25,-212,0,0,0,7,40,-15,34.2,35.66,1018.19,0,0
2022-11-02 15:37:56,1001,25,-212,0,0,0,7,40,-15,34.2,35.66,1018.19,0,0
2022-11-02 15:37:56,1001,25,-212,0,0,0,7,40,-15,34.2,35.66,1018.19,0,0
2022-11-02 15:37:56,1001,25,-212,0,0,0,7,40,-15,34.2,35.66,1018.19,0,0
2022-11-02 15:37:56,991,31,-214,0,0,0,5,41,-12,34.2,35.66,1018.19,0,0
2022-11-02 15:37:56,991,31,-214,0,0,0,5,41,-12,34.2,35.66,1018.19,0,0
2022-11-02 15:37:56,991,31,-214,0,0,0,5,41,-12,34.2,35.66,1018.19,0,0
2022-11-02 15:37:56,991,31,-214,0,0,0,5,41,-12,34.2,35.66,1018.19,0,0
2022-11-02 15:37:56,991,31,-214,0,0,0,5,41,-12,34.2,35.66,1018.19,0,0
2022-11-02 15:37:56,991,31,-214,0,0,0,5,41,-12,34.2,35.66,1018.19,0,0
2022-11-02 15:37:56,991,31,-214,0,0,0,5,41,-12,34.2,35.66,1018.19,0,0
2022-11-02 15:37:56,991,31,-214,0,0,0,5,41,-12,34.2,35.66,1018.19,0,0
2022-11-02 15:37:56,991,31,-214,0,0,0,5,41,-12,34.2,35.66,1018.19,0,0
2022-11-02 15:37:56,1011,27,-212,0,0,0,6,42,-12,34.2,35.66,1018.19,0,0
2022-11-02 15:37:56,1011,27,-212,0,0,0,6,42,-12,34.2,35.66,1018.19,0,0
2022-11-02 15:37:56,1011,27,-212,0,0,0,6,42,-12,34.2,35.66,1018.19,0,0
2022-11-02 15:37:56,1011,27,-212,0,0,0,6,42,-12,34.2,35.66,1018.19,0,0
2022-11-02 15:37:56,1011,27,-212,0,0,0,6,42,-12,34.2,35.66,1018.19,0,0
2022-11-02 15:37:56,1011,27,-212,0,0,0,6,42,-12,34.2,35.66,1018.19,0,0
2022-11-02 15:37:56,1011,27,-212,0,0,0,6,42,-12,34.2,35.66,1018.19,0,0
2022-11-02 15:37:56,1011,27,-212,0,0,0,6,42,-12,34.2,35.66,1018.19,0,0
2022-11-02 15:37:56,1011,27,-212,0,0,0,6,42,-12,34.2,35.66,1018.19,0,0
2022-11-02 15:37:56,993,29,-208,0,0,0,7,37,-13,34.2,35.66,1018.19,0,0
2022-11-02 15:37:56,993,29,-208,0,0,0,7,37,-13,34.2,35.66,1018.19,0,0
2022-11-02 15:37:56,993,29,-208,0,0,0,7,37,-13,34.2,35.66,1018.19,0,0
2022-11-02 15:37:56,993,29,-208,0,0,0,7,37,-13,34.2,35.66,1018.19,0,0
2022-11-02 15:37:56,993,29,-208,0,0,0,7,37,-13,34.2,35.66,1018.19,0,0
2022-11-02 15:37:56,993,29,-208,0,0,0,7,37,-13,34.2,35.66,1018.19,0,0
2022-11-02 15:37:56,993,29,-208,0,0,0,7,37,-13,34.2,35.66,1018.19,0,0
2022-11-02 15:37:56,993,29,-208,0,0,0,7,37,-13,34.2,35.66,1018.19,0,0
2022-11-02 15:37:56,993,29,-208,0,0,0,7,37,-13,34.2,35.66,1018.19,0,0
2022-11-02 15:37:56,1007,23,-210,0,0,0,7,42,-13,34.2,35.66,1018.19,0,0
2022-11-02 15:37:56,1007,23,-210,0,0,0,7,42,-13,34.2,35.66,1018.19,0,0
2022-11-02 15:37:56,1007,23,-210,0,0,0,7,42,-13,34.2,35.66,1018.19,0,0
2022-11-02 15:37:56,1007,23,-210,0,0,0,7,42,-13,34.2,35.66,1018.19,0,0
2022-11-02 15:37:56,1007,23,-210,0,0,0,7,42,-13,34.2,35.66,1018.19,0,0
2022-11-02 15:37:56,1007,23,-210,0,0,0,7,42,-13,34.2,35.66,1018.19,0,0
2022-11-02 15:37:56,1007,23,-210,0,0,0,7,42,-13,34.2,35.66,1018.19,0,0
2022-11-02 15:37:56,1007,23,-210,0,0,0,7,42,-13,34.2,35.66,1018.19,0,0
2022-11-02 15:37:56,1007,23,-210,0,0,0,7,42,-13,34.2,35.66,1018.19,0,0
2022-11-02 15:37:56,995,21,-222,0,0,0,4,39,-10,34.2,35.66,1018.19,0,0
2022-11-02 15:37:56,995,21,-222,0,0,0,4,39,-10,34.2,35.66,1018.19,0,0
2022-11-02 15:37:56,995,21,-222,0,0,0,4,39,-10,34.2,35.66,1018.19,0,0
2022-11-02 15:37:56,995,21,-222,0,0,0,4,39,-10,34.2,35.66,1018.19,0,0
2022-11-02 15:37:56,995,21,-222,0,0,0,4,39,-10,34.2,35.66,1018.19,0,0
2022-11-02 15:37:56,995,21,-222,0,0,0,4,39,-10,34.2,35.66,1018.19,0,0
2022-11-02 15:37:56,995,21,-222,0,0,0,4,39,-10,34.2,35.66,1018.19,0,0
2022-11-02 15:37:56,995,21,-222,0,0,0,4,39,-10,34.2,35.66,1018.19,0,0
2022-11-02 15:37:56,995,21,-222,0,0,0,4,39,-10,34.2,35.66,1018.19,0,0
2022-11-02 15:37:56,999,27,-206,0,0,0,4,40,-7,34.2,35.66,1018.19,0,0
2022-11-02 15:37:56,999,27,-206,0,0,0,4,40,-7,34.2,35.66,1018.19,0,0
2022-11-02 15:37:56,999,27,-206,0,0,0,4,40,-7,34.2,35.66,1018.19,0,0
2022-11-02 15:37:56,999,27,-206,0,0,0,4,40,-7,34.2,35.66,1018.19,0,0
2022-11-02 15:37:56,999,27,-206,0,0,0,4,40,-7,34.2,35.66,1018.19,0,0
2022-11-02 15:37:56,999,27,-206,0,0,0,4,40,-7,34.2,35.66,1018.19,0,0
2022-11-02 15:37:56,999,27,-206,0,0,0,4,40,-7,34.2,35.66,1018.19,0,0
2022-11-02 15:37:56,999,27,-206,0,0,0,4,40,-7,34.2,35.66,1018.19,0,0
2022-11-02 15:37:56,999,27,-206,0,0,0,4,40,-7,34.2,35.66,1018.19,0,0
2022-11-02 15:37:56,1001,21,-222,0,0,0,7,41,-13,34.2,35.66,1018.19,0,0
2022-11-02 15:37:56,1001,21,-222,0,0,0,7,41,-13,34.2,35.66,1018.19,0,0
2022-11-02 15:37:56,1001,21,-222,0,0,0,7,41,-13,34.2,35.66,1018.19,0,0
2022-11-02 15:37:56,1001,21,-222,0,0,0,7,41,-13,34.2,35.66,1018.19,0,0
2022-11-02 15:37:56,1001,21,-222,0,0,0,7,41,-13,34.2,35.66,1018.19,0,0
2022-11-02 15:37:56,1001,21,-222,0,0,0,7,41,-13,34.2,35.66,1018.19,0,0
2022-11-02 15:37:56,1001,21,-222,0,0,0,7,41,-13,34.2,35.66,1018.19,0,0
2022-11-02 15:37:56,1001,21,-222,0,0,0,7,41,-13,34.2,35.66,1018.19,0,0
2022-11-02 15:37:56,1001,21,-222,0,0,0,7,41,-13,34.2,35.66,1018.19,0,0
2022-11-02 15:37:57,1003,25,-216,0,0,0,4,41,-13,34.2,35.66,1018.19,0,0
2022-11-02 15:37:57,1003,25,-216,0,0,0,4,41,-13,34.2,35.66,1018.19,0,0
2022-11-02 15:37:57,1003,25,-216,0,0,0,4,41,-13,34.2,35.66,1018.19,0,0
2022-11-02 15:37:57,1003,25,-216,0,0,0,4,41,-13,34.2,35.66,1018.19,0,0
2022-11-02 15:37:57,1003,25,-216,0,0,0,4,41,-13,34.2,35.66,1018.19,0,0
2022-11-02 15:37:57,1003,25,-216,0,0,0,4,41,-13,34.2,35.66,1018.19,0,0
2022-11-02 15:37:57,1003,25,-216,0,0,0,4,41,-13,34.2,35.66,1018.19,0,0
2022-11-02 15:37:57,1003,25,-216,0,0,0,4,41,-13,34.2,35.66,1018.19,0,0
2022-11-02 15:37:57,1003,25,-216,0,0,0,4,41,-13,34.2,35.66,1018.19,0,0
2022-11-02 15:37:57,993,25,-214,0,0,0,2,40,-13,34.2,35.66,1018.19,0,0
2022-11-02 15:37:57,993,25,-214,0,0,0,2,40,-13,34.2,35.66,1018.19,0,0
2022-11-02 15:37:57,993,25,-214,0,0,0,2,40,-13,34.2,35.66,1018.19,0,0
2022-11-02 15:37:57,993,25,-214,0,0,0,2,40,-13,34.2,35.66,1018.19,0,0
2022-11-02 15:37:57,993,25,-214,0,0,0,2,40,-13,34.2,35.66,1018.19,0,0
2022-11-02 15:37:57,993,25,-214,0,0,0,2,40,-13,34.2,35.66,1018.19,0,0
2022-11-02 15:37:57,993,25,-214,0,0,0,2,40,-13,34.2,35.66,1018.19,0,0
2022-11-02 15:37:57,993,25,-214,0,0,0,2,40,-13,34.2,35.66,1018.19,0,0
2022-11-02 15:37:57,993,25,-214,0,0,0,2,40,-13,34.2,35.66,1018.19,0,0
2022-11-02 15:37:57,995,21,-220,0,0,0,6,38,-8,34.2,35.65,1018.15,0,0
2022-11-02 15:37:57,995,21,-220,0,0,0,6,38,-8,34.2,35.65,1018.15,0,0
2022-11-02 15:37:57,995,21,-220,0,0,0,6,38,-8,34.2,35.65,1018.15,0,0
2022-11-02 15:37:57,995,21,-220,0,0,0,6,38,-8,34.2,35.65,1018.15,0,0
2022-11-02 15:37:57,995,21,-220,0,0,0,6,38,-8,34.2,35.65,1018.15,0,0
2022-11-02 15:37:57,995,21,-220,0,0,0,6,38,-8,34.2,35.65,1018.15,0,0
2022-11-02 15:37:57,995,21,-220,0,0,0,6,38,-8,34.2,35.65,1018.15,0,0
2022-11-02 15:37:57,995,21,-220,0,0,0,6,38,-8,34.2,35.65,1018.15,0,0
2022-11-02 15:37:57,995,21,-220,0,0,0,6,38,-8,34.2,35.65,1018.15,0,0
2022-11-02 15:37:57,1007,27,-222,0,0,0,5,40,-15,34.2,35.65,1018.15,0,0
2022-11-02 15:37:57,1007,27,-222,0,0,0,5,40,-15,34.2,35.65,1018.15,0,0
2022-11-02 15:37:57,1007,27,-222,0,0,0,5,40,-15,34.2,35.65,1018.15,0,0
2022-11-02 15:37:57,1007,27,-222,0,0,0,5,40,-15,34.2,35.65,1018.15,0,0
2022-11-02 15:37:57,1007,27,-222,0,0,0,5,40,-15,34.2,35.65,1018.15,0,0
2022-11-02 15:37:57,1007,27,-222,0,0,0,5,40,-15,34.2,35.65,1018.15,0,0
2022-11-02 15:37:57,1007,27,-222,0,0,0,5,40,-15,34.2,35.65,1018.15,0,0
2022-11-02 15:37:57,1007,27,-222,0,0,0,5,40,-15,34.2,35.65,1018.15,0,0
2022-11-02 15:37:57,1007,27,-222,0,0,0,5,40,-15,34.2,35.65,1018.15,0,0
2022-11-02 15:37:57,999,33,-203,0,0,0,5,40,-13,34.2,35.65,1018.15,0,0
2022-11-02 15:37:57,999,33,-203,0,0,0,5,40,-13,34.2,35.65,1018.15,0,0
2022-11-02 15:37:57,999,33,-203,0,0,0,5,40,-13,34.2,35.65,1018.15,0,0
2022-11-02 15:37:57,999,33,-203,0,0,0,5,40,-13,34.2,35.65,1018.15,0,0
2022-11-02 15:37:57,999,33,-203,0,0,0,5,40,-13,34.2,35.65,1018.15,0,0
2022-11-02 15:37:57,999,33,-203,0,0,0,5,40,-13,34.2,35.65,1018.15,0,0
2022-11-02 15:37:57,999,33,-203,0,0,0,5,40,-13,34.2,35.65,1018.15,0,0
2022-11-02 15:37:57,999,33,-203,0,0,0,5,40,-13,34.2,35.65,1018.15,0,0
2022-11-02 15:37:57,999,33,-203,0,0,0,5,40,-13,34.2,35.65,1018.15,0,0
2022-11-02 15:37:57,995,37,-226,0,0,0,4,40,-13,34.2,35.65,1018.15,0,0
2022-11-02 15:37:57,995,37,-226,0,0,0,4,40,-13,34.2,35.65,1018.15,0,0
2022-11-02 15:37:57,995,37,-226,0,0,0,4,40,-13,34.2,35.65,1018.15,0,0
2022-11-02 15:37:57,995,37,-226,0,0,0,4,40,-13,34.2,35.65,1018.15,0,0
2022-11-02 15:37:57,995,37,-226,0,0,0,4,40,-13,34.2,35.65,1018.15,0,0
2022-11-02 15:37:57,995,37,-226,0,0,0,4,40,-13,34.2,35.65,1018.15,0,0
2022-11-02 15:37:57,995,37,-226,0,0,0,4,40,-13,34.2,35.65,1018.15,0,0
2022-11-02 15:37:57,995,37,-226,0,0,0,4,40,-13,34.2,35.65,1018.15,0,0
2022-11-02 15:37:57,995,37,-226,0,0,0,4,40,-13,34.2,35.65,1018.15,0,0
2022-11-02 15:37:57,995,29,-222,0,0,0,4,40,-12,34.2,35.65,1018.15,0,0
2022-11-02 15:37:57,995,29,-222,0,0,0,4,40,-12,34.2,35.65,1018.15,0,0
2022-11-02 15:37:57,995,29,-222,0,0,0,4,40,-12,34.2,35.65,1018.15,0,0
2022-11-02 15:37:57,995,29,-222,0,0,0,4,40,-12,34.2,35.65,1018.15,0,0
2022-11-02 15:37:57,995,29,-222,0,0,0,4,40,-12,34.2,35.65,1018.15,0,0
2022-11-02 15:37:57,995,29,-222,0,0,0,4,40,-12,34.2,35.65,1018.15,0,0
2022-11-02 15:37:57,995,29,-222,0,0,0,4,40,-12,34.2,35.65,1018.15,0,0
2022-11-02 15:37:57,995,29,-222,0,0,0,4,40,-12,34.2,35.65,1018.15,0,0
2022-11-02 15:37:57,995,29,-222,0,0,0,4,40,-12,34.2,35.65,1018.15,0,0
2022-11-02 15:37:57,1007,25,-210,0,0,0,4,41,-10,34.2,35.65,1018.15,0,0
2022-11-02 15:37:57,1007,25,-210,0,0,0,4,41,-10,34.2,35.65,1018.15,0,0
2022-11-02 15:37:57,1007,25,-210,0,0,0,4,41,-10,34.2,35.65,1018.15,0,0
2022-11-02 15:37:57,1007,25,-210,0,0,0,4,41,-10,34.2,35.65,1018.15,0,0
2022-11-02 15:37:57,1007,25,-210,0,0,0,4,41,-10,34.2,35.65,1018.15,0,0
2022-11-02 15:37:57,1007,25,-210,0,0,0,4,41,-10,34.2,35.65,1018.15,0,0
2022-11-02 15:37:57,1007,25,-210,0,0,0,4,41,-10,34.2,35.65,1018.15,0,0
2022-11-02 15:37:57,1007,25,-210,0,0,0,4,41,-10,34.2,35.65,1018.15,0,0
2022-11-02 15:37:57,1007,25,-210,0,0,0,4,41,-10,34.2,35.65,1018.15,0,0
2022-11-02 15:37:57,1005,29,-224,0,0,0,5,40,-13,34.2,35.65,1018.15,0,0
2022-11-02 15:37:57,1005,29,-224,0,0,0,5,40,-13,34.2,35.65,1018.15,0,0
2022-11-02 15:37:57,1005,29,-224,0,0,0,5,40,-13,34.2,35.65,1018.15,0,0
2022-11-02 15:37:57,1005,29,-224,0,0,0,5,40,-13,34.2,35.65,1018.15,0,0
2022-11-02 15:37:57,1005,29,-224,0,0,0,5,40,-13,34.2,35.65,1018.15,0,0
2022-11-02 15:37:57,1005,29,-224,0,0,0,5,40,-13,34.2,35.65,1018.15,0,0
2022-11-02 15:37:57,1005,29,-224,0,0,0,5,40,-13,34.2,35.65,1018.15,0,0
2022-11-02 15:37:57,1005,29,-224,0,0,0,5,40,-13,34.2,35.65,1018.15,0,0
2022-11-02 15:37:57,1005,29,-224,0,0,0,5,40,-13,34.2,35.65,1018.15,0,0
2022-11-02 15:37:57,999,25,-212,0,1,0,3,40,-13,34.2,35.65,1018.15,0,0
2022-11-02 15:37:57,999,25,-212,0,1,0,3,40,-13,34.2,35.65,1018.15,0,0
2022-11-02 15:37:57,999,25,-212,0,1,0,3,40,-13,34.2,35.65,1018.15,0,0
2022-11-02 15:37:57,999,25,-212,0,1,0,3,40,-13,34.2,35.65,1018.15,0,0
2022-11-02 15:37:57,999,25,-212,0,1,0,3,40,-13,34.2,35.65,1018.15,0,0
2022-11-02 15:37:57,999,25,-212,0,1,0,3,40,-13,34.2,35.65,1018.15,0,0
2022-11-02 15:37:57,999,25,-212,0,1,0,3,40,-13,34.2,35.65,1018.15,0,0
2022-11-02 15:37:57,999,25,-212,0,1,0,3,40,-13,34.2,35.65,1018.15,0,0
2022-11-02 15:37:57,999,25,-212,0,1,0,3,40,-13,34.2,35.65,1018.15,0,0
2022-11-02 15:37:58,999,17,-216,0,1,0,5,41,-11,34.2,35.65,1018.15,0,0
2022-11-02 15:37:58,999,17,-216,0,1,0,5,41,-11,34.2,35.65,1018.15,0,0
2022-11-02 15:37:58,999,17,-216,0,1,0,5,41,-11,34.2,35.65,1018.15,0,0
2022-11-02 15:37:58,999,17,-216,0,1,0,5,41,-11,34.2,35.65,1018.15,0,0
2022-11-02 15:37:58,999,17,-216,0,1,0,5,41,-11,34.2,35.65,1018.15,0,0
2022-11-02 15:37:58,999,17,-216,0,1,0,5,41,-11,34.2,35.65,1018.15,0,0
2022-11-02 15:37:58,999,17,-216,0,1,0,5,41,-11,34.2,35.65,1018.15,0,0
2022-11-02 15:37:58,999,17,-216,0,1,0,5,41,-11,34.2,35.65,1018.15,0,0
2022-11-02 15:37:58,999,17,-216,0,1,0,5,41,-11,34.2,35.65,1018.15,0,0
2022-11-02 15:37:58,1001,25,-201,0,1,0,3,43,-18,34.2,35.65,1018.15,0,0
2022-11-02 15:37:58,1001,25,-201,0,1,0,3,43,-18,34.2,35.65,1018.15,0,0
2022-11-02 15:37:58,1001,25,-201,0,1,0,3,43,-18,34.2,35.65,1018.15,0,0
2022-11-02 15:37:58,1001,25,-201,0,1,0,3,43,-18,34.2,35.65,1018.15,0,0
2022-11-02 15:37:58,1001,25,-201,0,1,0,3,43,-18,34.2,35.65,1018.15,0,0
2022-11-02 15:37:58,1001,25,-201,0,1,0,3,43,-18,34.2,35.65,1018.15,0,0
2022-11-02 15:37:58,1001,25,-201,0,1,0,3,43,-18,34.2,35.65,1018.15,0,0
2022-11-02 15:37:58,1001,25,-201,0,1,0,3,43,-18,34.2,35.65,1018.15,0,0
2022-11-02 15:37:58,1001,25,-201,0,1,0,3,43,-18,34.2,35.65,1018.15,0,0
2022-11-02 15:37:58,991,23,-214,0,0,0,4,39,-15,34.2,35.66,1018.18,0,0
2022-11-02 15:37:58,991,23,-214,0,0,0,4,39,-15,34.2,35.66,1018.18,0,0
2022-11-02 15:37:58,991,23,-214,0,0,0,4,39,-15,34.2,35.66,1018.18,0,0
2022-11-02 15:37:58,991,23,-214,0,0,0,4,39,-15,34.2,35.66,1018.18,0,0
2022-11-02 15:37:58,991,23,-214,0,0,0,4,39,-15,34.2,35.66,1018.18,0,0
2022-11-02 15:37:58,991,23,-214,0,0,0,4,39,-15,34.2,35.66,1018.18,0,0
2022-11-02 15:37:58,991,23,-214,0,0,0,4,39,-15,34.2,35.66,1018.18,0,0
2022-11-02 15:37:58,991,23,-214,0,0,0,4,39,-15,34.2,35.66,1018.18,0,0
2022-11-02 15:37:58,991,23,-214,0,0,0,4,39,-15,34.2,35.66,1018.18,0,0
2022-11-02 15:37:58,1001,35,-210,0,1,0,4,39,-13,34.2,35.66,1018.18,0,0
2022-11-02 15:37:58,1001,35,-210,0,1,0,4,39,-13,34.2,35.66,1018.18,0,0
2022-11-02 15:37:58,1001,35,-210,0,1,0,4,39,-13,34.2,35.66,1018.18,0,0
2022-11-02 15:37:58,1001,35,-210,0,1,0,4,39,-13,34.2,35.66,1018.18,0,0
2022-11-02 15:37:58,1001,35,-210,0,1,0,4,39,-13,34.2,35.66,1018.18,0,0
2022-11-02 15:37:58,1001,35,-210,0,1,0,4,39,-13,34.2,35.66,1018.18,0,0
2022-11-02 15:37:58,1001,35,-210,0,1,0,4,39,-13,34.2,35.66,1018.18,0,0
2022-11-02 15:37:58,1001,35,-210,0,1,0,4,39,-13,34.2,35.66,1018.18,0,0
2022-11-02 15:37:58,1001,35,-210,0,1,0,4,39,-13,34.2,35.66,1018.18,0,0
2022-11-02 15:37:58,995,19,-212,0,0,0,6,39,-15,34.2,35.66,1018.18,0,0
2022-11-02 15:37:58,995,19,-212,0,0,0,6,39,-15,34.2,35.66,1018.18,0,0
2022-11-02 15:37:58,995,19,-212,0,0,0,6,39,-15,34.2,35.66,1018.18,0,0
2022-11-02 15:37:58,995,19,-212,0,0,0,6,39,-15,34.2,35.66,1018.18,0,0
2022-11-02 15:37:58,995,19,-212,0,0,0,6,39,-15,34.2,35.66,1018.18,0,0
2022-11-02 15:37:58,995,19,-212,0,0,0,6,39,-15,34.2,35.66,1018.18,0,0
2022-11-02 15:37:58,995,19,-212,0,0,0,6,39,-15,34.2,35.66,1018.18,0,0
2022-11-02 15:37:58,995,19,-212,0,0,0,6,39,-15,34.2,35.66,1018.18,0,0
2022-11-02 15:37:58,995,19,-212,0,0,0,6,39,-15,34.2,35.66,1018.18,0,0
2022-11-02 15:37:58,1005,13,-195,0,0,0,4,39,-8,34.2,35.66,1018.18,0,0
2022-11-02 15:37:58,1005,13,-195,0,0,0,4,39,-8,34.2,35.66,1018.18,0,0
2022-11-02 15:37:58,1005,13,-195,0,0,0,4,39,-8,34.2,35.66,1018.18,0,0
2022-11-02 15:37:58,1005,13,-195,0,0,0,4,39,-8,34.2,35.66,1018.18,0,0
2022-11-02 15:37:58,1005,13,-195,0,0,0,4,39,-8,34.2,35.66,1018.18,0,0
2022-11-02 15:37:58,1005,13,-195,0,0,0,4,39,-8,34.2,35.66,1018.18,0,0
2022-11-02 15:37:58,1005,13,-195,0,0,0,4,39,-8,34.2,35.66,1018.18,0,0
2022-11-02 15:37:58,1005,13,-195,0,0,0,4,39,-8,34.2,35.66,1018.18,0,0
2022-11-02 15:37:58,1005,13,-195,0,0,0,4,39,-8,34.2,35.66,1018.18,0,0
2022-11-02 15:37:58,1001,21,-204,0,0,0,7,41,-13,34.2,35.66,1018.18,0,0
2022-11-02 15:37:58,1001,21,-204,0,0,0,7,41,-13,34.2,35.66,1018.18,0,0
2022-11-02 15:37:58,1001,21,-204,0,0,0,7,41,-13,34.2,35.66,1018.18,0,0
2022-11-02 15:37:58,1001,21,-204,0,0,0,7,41,-13,34.2,35.66,1018.18,0,0
2022-11-02 15:37:58,1001,21,-204,0,0,0,7,41,-13,34.2,35.66,1018.18,0,0
2022-11-02 15:37:58,1001,21,-204,0,0,0,7,41,-13,34.2,35.66,1018.18,0,0
2022-11-02 15:37:58,1001,21,-204,0,0,0,7,41,-13,34.2,35.66,1018.18,0,0
2022-11-02 15:37:58,1001,21,-204,0,0,0,7,41,-13,34.2,35.66,1018.18,0,0
2022-11-02 15:37:58,1001,21,-204,0,0,0,7,41,-13,34.2,35.66,1018.18,0,0
2022-11-02 15:37:58,1003,23,-212,0,0,0,6,41,-10,34.2,35.66,1018.18,0,0
2022-11-02 15:37:58,1003,23,-212,0,0,0,6,41,-10,34.2,35.66,1018.18,0,0
2022-11-02 15:37:58,1003,23,-212,0,0,0,6,41,-10,34.2,35.66,1018.18,0,0
2022-11-02 15:37:58,1003,23,-212,0,0,0,6,41,-10,34.2,35.66,1018.18,0,0
2022-11-02 15:37:58,1003,23,-212,0,0,0,6,41,-10,34.2,35.66,1018.18,0,0
2022-11-02 15:37:58,1003,23,-212,0,0,0,6,41,-10,34.2,35.66,1018.18,0,0
2022-11-02 15:37:58,1003,23,-212,0,0,0,6,41,-10,34.2,35.66,1018.18,0,0
2022-11-02 15:37:58,1003,23,-212,0,0,0,6,41,-10,34.2,35.66,1018.18,0,0
2022-11-02 15:37:58,1003,23,-212,0,0,0,6,41,-10,34.2,35.66,1018.18,0,0
2022-11-02 15:37:58,1003,23,-203,0,0,0,5,43,-15,34.2,35.66,1018.18,0,0
2022-11-02 15:37:58,1003,23,-203,0,0,0,5,43,-15,34.2,35.66,1018.18,0,0
2022-11-02 15:37:58,1003,23,-203,0,0,0,5,43,-15,34.2,35.66,1018.18,0,0
2022-11-02 15:37:58,1003,23,-203,0,0,0,5,43,-15,34.2,35.66,1018.18,0,0
2022-11-02 15:37:58,1003,23,-203,0,0,0,5,43,-15,34.2,35.66,1018.18,0,0
2022-11-02 15:37:58,1003,23,-203,0,0,0,5,43,-15,34.2,35.66,1018.18,0,0
2022-11-02 15:37:58,1003,23,-203,0,0,0,5,43,-15,34.2,35.66,1018.18,0,0
2022-11-02 15:37:58,1003,23,-203,0,0,0,5,43,-15,34.2,35.66,1018.18,0,0
2022-11-02 15:37:58,1003,23,-203,0,0,0,5,43,-15,34.2,35.66,1018.18,0,0
2022-11-02 15:37:58,999,29,-208,0,0,0,7,38,-13,34.2,35.66,1018.18,0,0
2022-11-02 15:37:58,999,29,-208,0,0,0,7,38,-13,34.2,35.66,1018.18,0,0
2022-11-02 15:37:58,999,29,-208,0,0,0,7,38,-13,34.2,35.66,1018.18,0,0
2022-11-02 15:37:58,999,29,-208,0,0,0,7,38,-13,34.2,35.66,1018.18,0,0
2022-11-02 15:37:58,999,29,-208,0,0,0,7,38,-13,34.2,35.66,1018.18,0,0
2022-11-02 15:37:58,999,29,-208,0,0,0,7,38,-13,34.2,35.66,1018.18,0,0
2022-11-02 15:37:58,999,29,-208,0,0,0,7,38,-13,34.2,35.66,1018.18,0,0
2022-11-02 15:37:58,999,29,-208,0,0,0,7,38,-13,34.2,35.66,1018.18,0,0
2022-11-02 15:37:58,999,29,-208,0,0,0,7,38,-13,34.2,35.66,1018.18,0,0
2022-11-02 15:37:59,995,40,-214,0,0,0,4,39,-15,34.2,35.66,1018.18,0,0
2022-11-02 15:37:59,995,40,-214,0,0,0,4,39,-15,34.2,35.66,1018.18,0,0
2022-11-02 15:37:59,995,40,-214,0,0,0,4,39,-15,34.2,35.66,1018.18,0,0
2022-11-02 15:37:59,995,40,-214,0,0,0,4,39,-15,34.2,35.66,1018.18,0,0
2022-11-02 15:37:59,995,40,-214,0,0,0,4,39,-15,34.2,35.66,1018.18,0,0
2022-11-02 15:37:59,995,40,-214,0,0,0,4,39,-15,34.2,35.66,1018.18,0,0
2022-11-02 15:37:59,995,40,-214,0,0,0,4,39,-15,34.2,35.66,1018.18,0,0
2022-11-02 15:37:59,995,40,-214,0,0,0,4,39,-15,34.2,35.66,1018.18,0,0
2022-11-02 15:37:59,995,40,-214,0,0,0,4,39,-15,34.2,35.66,1018.18,0,0
2022-11-02 15:37:59,1005,37,-212,0,0,0,4,40,-10,34.2,35.66,1018.18,0,0
2022-11-02 15:37:59,1005,37,-212,0,0,0,4,40,-10,34.2,35.66,1018.18,0,0
2022-11-02 15:37:59,1005,37,-212,0,0,0,4,40,-10,34.2,35.66,1018.18,0,0
2022-11-02 15:37:59,1005,37,-212,0,0,0,4,40,-10,34.2,35.66,1018.18,0,0
2022-11-02 15:37:59,1005,37,-212,0,0,0,4,40,-10,34.2,35.66,1018.18,0,0
2022-11-02 15:37:59,1005,37,-212,0,0,0,4,40,-10,34.2,35.66,1018.18,0,0
2022-11-02 15:37:59,1005,37,-212,0,0,0,4,40,-10,34.2,35.66,1018.18,0,0
2022-11-02 15:37:59,1005,37,-212,0,0,0,4,40,-10,34.2,35.66,1018.18,0,0
2022-11-02 15:37:59,1005,37,-212,0,0,0,4,40,-10,34.2,35.66,1018.18,0,0
2022-11-02 15:37:59,993,23,-210,0,0,0,6,38,-13,34.2,35.66,1018.19,0,0
2022-11-02 15:37:59,993,23,-210,0,0,0,6,38,-13,34.2,35.66,1018.19,0,0
2022-11-02 15:37:59,993,23,-210,0,0,0,6,38,-13,34.2,35.66,1018.19,0,0
2022-11-02 15:37:59,993,23,-210,0,0,0,6,38,-13,34.2,35.66,1018.19,0,0
2022-11-02 15:37:59,993,23,-210,0,0,0,6,38,-13,34.2,35.66,1018.19,0,0
2022-11-02 15:37:59,993,23,-210,0,0,0,6,38,-13,34.2,35.66,1018.19,0,0
2022-11-02 15:37:59,993,23,-210,0,0,0,6,38,-13,34.2,35.66,1018.19,0,0
2022-11-02 15:37:59,993,23,-210,0,0,0,6,38,-13,34.2,35.66,1018.19,0,0
2022-11-02 15:37:59,993,23,-210,0,0,0,6,38,-13,34.2,35.66,1018.19,0,0
2022-11-02 15:37:59,1003,27,-214,0,0,0,4,41,-7,34.2,35.66,1018.19,0,0
2022-11-02 15:37:59,1003,27,-214,0,0,0,4,41,-7,34.2,35.66,1018.19,0,0
2022-11-02 15:37:59,1003,27,-214,0,0,0,4,41,-7,34.2,35.66,1018.19,0,0
2022-11-02 15:37:59,1003,27,-214,0,0,0,4,41,-7,34.2,35.66,1018.19,0,0
2022-11-02 15:37:59,1003,27,-214,0,0,0,4,41,-7,34.2,35.66,1018.19,0,0
2022-11-02 15:37:59,1003,27,-214,0,0,0,4,41,-7,34.2,35.66,1018.19,0,0
2022-11-02 15:37:59,1003,27,-214,0,0,0,4,41,-7,34.2,35.66,1018.19,0,0
2022-11-02 15:37:59,1003,27,-214,0,0,0,4,41,-7,34.2,35.66,1018.19,0,0
2022-11-02 15:37:59,1003,27,-214,0,0,0,4,41,-7,34.2,35.66,1018.19,0,0
2022-11-02 15:37:59,999,29,-222,0,0,1,6,41,-13,34.2,35.66,1018.19,0,0
2022-11-02 15:37:59,999,29,-222,0,0,1,6,41,-13,34.2,35.66,1018.19,0,0
2022-11-02 15:37:59,999,29,-222,0,0,1,6,41,-13,34.2,35.66,1018.19,0,0
2022-11-02 15:37:59,999,29,-222,0,0,1,6,41,-13,34.2,35.66,1018.19,0,0
2022-11-02 15:37:59,999,29,-222,0,0,1,6,41,-13,34.2,35.66,1018.19,0,0
2022-11-02 15:37:59,999,29,-222,0,0,1,6,41,-13,34.2,35.66,1018.19,0,0
2022-11-02 15:37:59,999,29,-222,0,0,1,6,41,-13,34.2,35.66,1018.19,0,0
2022-11-02 15:37:59,999,29,-222,0,0,1,6,41,-13,34.2,35.66,1018.19,0,0
2022-11-02 15:37:59,999,29,-222,0,0,1,6,41,-13,34.2,35.66,1018.19,0,0
2022-11-02 15:37:59,1007,31,-203,0,-2,0,5,39,-13,34.2,35.66,1018.19,0,0
2022-11-02 15:37:59,1007,31,-203,0,-2,0,5,39,-13,34.2,35.66,1018.19,0,0
2022-11-02 15:37:59,1007,31,-203,0,-2,0,5,39,-13,34.2,35.66,1018.19,0,0
2022-11-02 15:37:59,1007,31,-203,0,-2,0,5,39,-13,34.2,35.66,1018.19,0,0
2022-11-02 15:37:59,1007,31,-203,0,-2,0,5,39,-13,34.2,35.66,1018.19,0,0
2022-11-02 15:37:59,1007,31,-203,0,-2,0,5,39,-13,34.2,35.66,1018.19,0,0
2022-11-02 15:37:59,1007,31,-203,0,-2,0,5,39,-13,34.2,35.66,1018.19,0,0
2022-11-02 15:37:59,1007,31,-203,0,-2,0,5,39,-13,34.2,35.66,1018.19,0,0
2022-11-02 15:37:59,1007,31,-203,0,-2,0,5,39,-13,34.2,35.66,1018.19,0,0
2022-11-02 15:37:59,993,11,-218,0,-2,1,4,44,-12,34.2,35.66,1018.19,0,0
2022-11-02 15:37:59,993,11,-218,0,-2,1,4,44,-12,34.2,35.66,1018.19,0,0
2022-11-02 15:37:59,993,11,-218,0,-2,1,4,44,-12,34.2,35.66,1018.19,0,0
2022-11-02 15:37:59,993,11,-218,0,-2,1,4,44,-12,34.2,35.66,1018.19,0,0
2022-11-02 15:37:59,993,11,-218,0,-2,1,4,44,-12,34.2,35.66,1018.19,0,0
2022-11-02 15:37:59,993,11,-218,0,-2,1,4,44,-12,34.2,35.66,1018.19,0,0
2022-11-02 15:37:59,993,11,-218,0,-2,1,4,44,-12,34.2,35.66,1018.19,0,0
2022-11-02 15:37:59,993,11,-218,0,-2,1,4,44,-12,34.2,35.66,1018.19,0,0
2022-11-02 15:37:59,993,11,-218,0,-2,1,4,44,-12,34.2,35.66,1018.19,0,0
2022-11-02 15:37:59,997,23,-230,-1,0,0,4,38,-10,34.2,35.66,1018.19,0,0
2022-11-02 15:37:59,997,23,-230,-1,0,0,4,38,-10,34.2,35.66,1018.19,0,0
2022-11-02 15:37:59,997,23,-230,-1,0,0,4,38,-10,34.2,35.66,1018.19,0,0
2022-11-02 15:37:59,997,23,-230,-1,0,0,4,38,-10,34.2,35.66,1018.19,0,0
2022-11-02 15:37:59,997,23,-230,-1,0,0,4,38,-10,34.2,35.66,1018.19,0,0
2022-11-02 15:37:59,997,23,-230,-1,0,0,4,38,-10,34.2,35.66,1018.19,0,0
2022-11-02 15:37:59,997,23,-230,-1,0,0,4,38,-10,34.2,35.66,1018.19,0,0
2022-11-02 15:37:59,997,23,-230,-1,0,0,4,38,-10,34.2,35.66,1018.19,0,0
2022-11-02 15:37:59,997,23,-230,-1,0,0,4,38,-10,34.2,35.66,1018.19,0,0
2022-11-02 15:37:59,983,23,-238,0,-1,0,3,38,-10,34.2,35.66,1018.19,0,0
2022-11-02 15:37:59,983,23,-238,0,-1,0,3,38,-10,34.2,35.66,1018.19,0,0
2022-11-02 15:37:59,983,23,-238,0,-1,0,3,38,-10,34.2,35.66,1018.19,0,0
2022-11-02 15:37:59,983,23,-238,0,-1,0,3,38,-10,34.2,35.66,1018.19,0,0
2022-11-02 15:37:59,983,23,-238,0,-1,0,3,38,-10,34.2,35.66,1018.19,0,0
2022-11-02 15:37:59,983,23,-238,0,-1,0,3,38,-10,34.2,35.66,1018.19,0,0
2022-11-02 15:37:59,983,23,-238,0,-1,0,3,38,-10,34.2,35.66,1018.19,0,0
2022-11-02 15:37:59,983,23,-238,0,-1,0,3,38,-10,34.2,35.66,1018.19,0,0
2022-11-02 15:37:59,983,23,-238,0,-1,0,3,38,-10,34.2,35.66,1018.19,0,0
2022-11-02 15:37:59,985,25,-251,-1,-1,2,3,40,-14,34.2,35.66,1018.19,0,0
2022-11-02 15:37:59,985,25,-251,-1,-1,2,3,40,-14,34.2,35.66,1018.19,0,0
2022-11-02 15:37:59,985,25,-251,-1,-1,2,3,40,-14,34.2,35.66,1018.19,0,0
2022-11-02 15:37:59,985,25,-251,-1,-1,2,3,40,-14,34.2,35.66,1018.19,0,0
2022-11-02 15:37:59,985,25,-251,-1,-1,2,3,40,-14,34.2,35.66,1018.19,0,0
2022-11-02 15:37:59,985,25,-251,-1,-1,2,3,40,-14,34.2,35.66,1018.19,0,0
2022-11-02 15:37:59,985,25,-251,-1,-1,2,3,40,-14,34.2,35.66,1018.19,0,0
2022-11-02 15:37:59,985,25,-251,-1,-1,2,3,40,-14,34.2,35.66,1018.19,0,0
