Time,Ax,Ay,Az,Gx,Gy,Gz,Mx,My,Mz,Temp,Humidity,Pressure,Mic,Light
2022-11-02 15:23:46,890,337,-409,0,0,0,16,72,77,32.3,34.45,1018.16,1,0
2022-11-02 15:23:46,890,337,-409,0,0,0,16,72,77,32.3,34.45,1018.16,1,0
2022-11-02 15:23:46,890,337,-409,0,0,0,16,72,77,32.3,34.45,1018.16,1,0
2022-11-02 15:23:46,890,337,-409,0,0,0,16,72,77,32.3,34.45,1018.16,1,0
2022-11-02 15:23:46,890,337,-409,0,0,0,16,72,77,32.3,34.45,1018.16,1,0
2022-11-02 15:23:46,890,337,-409,0,0,0,16,72,77,32.3,34.45,1018.16,1,0
2022-11-02 15:23:46,882,329,-419,0,0,0,16,73,74,32.3,34.45,1018.16,1,0
2022-11-02 15:23:46,882,329,-419,0,0,0,16,73,74,32.3,34.45,1018.16,1,0
2022-11-02 15:23:46,882,329,-419,0,0,0,16,73,74,32.3,34.45,1018.16,1,0
2022-11-02 15:23:46,882,329,-419,0,0,0,16,73,74,32.3,34.45,1018.16,1,0
2022-11-02 15:23:46,882,329,-419,0,0,0,16,73,74,32.3,34.45,1018.16,1,0
2022-11-02 15:23:46,882,329,-419,0,0,0,16,73,74,32.3,34.45,1018.16,1,0
2022-11-02 15:23:46,882,333,-429,0,0,0,16,72,72,32.3,34.45,1018.16,1,0
2022-11-02 15:23:46,882,333,-429,0,0,0,16,72,72,32.3,34.45,1018.16,1,0
2022-11-02 15:23:46,882,333,-429,0,0,0,16,72,72,32.3,34.45,1018.16,1,0
2022-11-02 15:23:46,882,333,-429,0,0,0,16,72,72,32.3,34.45,1018.16,1,0
2022-11-02 15:23:46,882,333,-429,0,0,0,16,72,72,32.3,34.45,1018.16,1,0
2022-11-02 15:23:46,882,333,-429,0,0,0,16,72,72,32.3,34.45,1018.16,1,0
2022-11-02 15:23:46,882,333,-413,0,-1,0,18,73,74,32.3,34.45,1018.16,1,0
2022-11-02 15:23:46,882,333,-413,0,-1,0,18,73,74,32.3,34.45,1018.16,1,0
2022-11-02 15:23:46,882,333,-413,0,-1,0,18,73,74,32.3,34.45,1018.16,1,0
2022-11-02 15:23:46,882,333,-413,0,-1,0,18,73,74,32.3,34.45,1018.16,1,0
2022-11-02 15:23:46,882,333,-413,0,-1,0,18,73,74,32.3,34.45,1018.16,1,0
2022-11-02 15:23:46,882,333,-413,0,-1,0,18,73,74,32.3,34.45,1018.16,1,0
2022-11-02 15:23:46,882,327,-427,0,0,0,16,71,72,32.3,34.47,1018.13,1,0
2022-11-02 15:23:46,882,327,-427,0,0,0,16,71,72,32.3,34.47,1018.13,1,0
2022-11-02 15:23:46,882,327,-427,0,0,0,16,71,72,32.3,34.47,1018.13,1,0
2022-11-02 15:23:46,882,327,-427,0,0,0,16,71,72,32.3,34.47,1018.13,1,0
2022-11-02 15:23:46,882,327,-427,0,0,0,16,71,72,32.3,34.47,1018.13,1,0
2022-11-02 15:23:46,882,327,-427,0,0,0,16,71,72,32.3,34.47,1018.13,1,0
2022-11-02 15:23:46,880,327,-433,0,0,0,16,72,72,32.3,34.47,1018.13,1,0
2022-11-02 15:23:46,880,327,-433,0,0,0,16,72,72,32.3,34.47,1018.13,1,0
2022-11-02 15:23:46,880,327,-433,0,0,0,16,72,72,32.3,34.47,1018.13,1,0
2022-11-02 15:23:46,880,327,-433,0,0,0,16,72,72,32.3,34.47,1018.13,1,0
2022-11-02 15:23:46,880,327,-433,0,0,0,16,72,72,32.3,34.47,1018.13,1,0
2022-11-02 15:23:46,880,327,-433,0,0,0,16,72,72,32.3,34.47,1018.13,1,0
2022-11-02 15:23:46,874,325,-425,0,1,0,18,70,73,32.3,34.47,1018.13,1,0
2022-11-02 15:23:46,874,325,-425,0,1,0,18,70,73,32.3,34.47,1018.13,1,0
2022-11-02 15:23:46,874,325,-425,0,1,0,18,70,73,32.3,34.47,1018.13,1,0
2022-11-02 15:23:46,874,325,-425,0,1,0,18,70,73,32.3,34.47,1018.13,1,0
2022-11-02 15:23:46,874,325,-425,0,1,0,18,70,73,32.3,34.47,1018.13,1,0
2022-11-02 15:23:46,874,325,-425,0,1,0,18,70,73,32.3,34.47,1018.13,1,0
2022-11-02 15:23:46,878,335,-429,0,0,0,14,75,75,32.3,34.47,1018.13,1,0
2022-11-02 15:23:46,878,335,-429,0,0,0,14,75,75,32.3,34.47,1018.13,1,0
2022-11-02 15:23:46,878,335,-429,0,0,0,14,75,75,32.3,34.47,1018.13,1,0
2022-11-02 15:23:46,878,335,-429,0,0,0,14,75,75,32.3,34.47,1018.13,1,0
2022-11-02 15:23:46,878,335,-429,0,0,0,14,75,75,32.3,34.47,1018.13,1,0
2022-11-02 15:23:46,878,335,-429,0,0,0,14,75,75,32.3,34.47,1018.13,1,0
2022-11-02 15:23:46,876,320,-425,0,0,0,17,72,77,32.3,34.47,1018.13,1,0
2022-11-02 15:23:46,876,320,-425,0,0,0,17,72,77,32.3,34.47,1018.13,1,0
2022-11-02 15:23:46,876,320,-425,0,0,0,17,72,77,32.3,34.47,1018.13,1,0
2022-11-02 15:23:46,876,320,-425,0,0,0,17,72,77,32.3,34.47,1018.13,1,0
2022-11-02 15:23:46,876,320,-425,0,0,0,17,72,77,32.3,34.47,1018.13,1,0
2022-11-02 15:23:46,876,320,-425,0,0,0,17,72,77,32.3,34.47,1018.13,1,0
2022-11-02 15:23:47,878,329,-429,0,1,0,13,76,72,32.3,34.47,1018.13,1,0
2022-11-02 15:23:47,878,329,-429,0,1,0,13,76,72,32.3,34.47,1018.13,1,0
2022-11-02 15:23:47,878,329,-429,0,1,0,13,76,72,32.3,34.47,1018.13,1,0
2022-11-02 15:23:47,878,329,-429,0,1,0,13,76,72,32.3,34.47,1018.13,1,0
2022-11-02 15:23:47,878,329,-429,0,1,0,13,76,72,32.3,34.47,1018.13,1,0
2022-11-02 15:23:47,878,329,-429,0,1,0,13,76,72,32.3,34.47,1018.13,1,0
2022-11-02 15:23:47,888,316,-435,0,1,0,14,73,73,32.3,34.47,1018.13,1,0
2022-11-02 15:23:47,888,316,-435,0,1,0,14,73,73,32.3,34.47,1018.13,1,0
2022-11-02 15:23:47,888,316,-435,0,1,0,14,73,73,32.3,34.47,1018.13,1,0
2022-11-02 15:23:47,888,316,-435,0,1,0,14,73,73,32.3,34.47,1018.13,1,0
2022-11-02 15:23:47,888,316,-435,0,1,0,14,73,73,32.3,34.47,1018.13,1,0
2022-11-02 15:23:47,888,316,-435,0,1,0,14,73,73,32.3,34.47,1018.13,1,0
2022-11-02 15:23:47,888,325,-415,0,0,0,16,73,76,32.3,34.47,1018.13,1,0
2022-11-02 15:23:47,888,325,-415,0,0,0,16,73,76,32.3,34.47,1018.13,1,0
2022-11-02 15:23:47,888,325,-415,0,0,0,16,73,76,32.3,34.47,1018.13,1,0
2022-11-02 15:23:47,888,325,-415,0,0,0,16,73,76,32.3,34.47,1018.13,1,0
2022-11-02 15:23:47,888,325,-415,0,0,0,16,73,76,32.3,34.47,1018.13,1,0
2022-11-02 15:23:47,888,325,-415,0,0,0,16,73,76,32.3,34.47,1018.13,1,0
2022-11-02 15:23:47,882,333,-411,0,1,0,16,72,73,32.3,34.47,1018.13,1,0
2022-11-02 15:23:47,882,333,-411,0,1,0,16,72,73,32.3,34.47,1018.13,1,0
2022-11-02 15:23:47,882,333,-411,0,1,0,16,72,73,32.3,34.47,1018.13,1,0
2022-11-02 15:23:47,882,333,-411,0,1,0,16,72,73,32.3,34.47,1018.13,1,0
2022-11-02 15:23:47,882,333,-411,0,1,0,16,72,73,32.3,34.47,1018.13,1,0
2022-11-02 15:23:47,882,333,-411,0,1,0,16,72,73,32.3,34.47,1018.13,1,0
2022-11-02 15:23:47,876,324,-419,0,1,0,17,73,75,32.3,34.47,1018.13,1,0
2022-11-02 15:23:47,876,324,-419,0,1,0,17,73,75,32.3,34.47,1018.13,1,0
2022-11-02 15:23:47,876,324,-419,0,1,0,17,73,75,32.3,34.47,1018.13,1,0
2022-11-02 15:23:47,876,324,-419,0,1,0,17,73,75,32.3,34.47,1018.13,1,0
2022-11-02 15:23:47,876,324,-419,0,1,0,17,73,75,32.3,34.47,1018.13,1,0
2022-11-02 15:23:47,876,324,-419,0,1,0,17,73,75,32.3,34.47,1018.13,1,0
2022-11-02 15:23:47,886,325,-423,0,1,0,14,76,72,32.3,34.47,1018.19,1,0
2022-11-02 15:23:47,886,325,-423,0,1,0,14,76,72,32.3,34.47,1018.19,1,0
2022-11-02 15:23:47,886,325,-423,0,1,0,14,76,72,32.3,34.47,1018.19,1,0
2022-11-02 15:23:47,886,325,-423,0,1,0,14,76,72,32.3,34.47,1018.19,1,0
2022-11-02 15:23:47,886,325,-423,0,1,0,14,76,72,32.3,34.47,1018.19,1,0
2022-11-02 15:23:47,886,325,-423,0,1,0,14,76,72,32.3,34.47,1018.19,1,0
2022-11-02 15:23:47,890,329,-417,0,1,0,18,73,74,32.3,34.47,1018.19,1,0
2022-11-02 15:23:47,890,329,-417,0,1,0,18,73,74,32.3,34.47,1018.19,1,0
2022-11-02 15:23:47,890,329,-417,0,1,0,18,73,74,32.3,34.47,1018.19,1,0
2022-11-02 15:23:47,890,329,-417,0,1,0,18,73,74,32.3,34.47,1018.19,1,0
2022-11-02 15:23:47,890,329,-417,0,1,0,18,73,74,32.3,34.47,1018.19,1,0
2022-11-02 15:23:47,890,329,-417,0,1,0,18,73,74,32.3,34.47,1018.19,1,0
2022-11-02 15:23:47,886,329,-409,0,0,0,15,70,76,32.3,34.47,1018.19,1,0
2022-11-02 15:23:47,886,329,-409,0,0,0,15,70,76,32.3,34.47,1018.19,1,0
2022-11-02 15:23:47,886,329,-409,0,0,0,15,70,76,32.3,34.47,1018.19,1,0
2022-11-02 15:23:47,886,329,-409,0,0,0,15,70,76,32.3,34.47,1018.19,1,0
2022-11-02 15:23:47,886,329,-409,0,0,0,15,70,76,32.3,34.47,1018.19,1,0
2022-11-02 15:23:47,886,329,-409,0,0,0,15,70,76,32.3,34.47,1018.19,1,0
2022-11-02 15:23:47,894,325,-415,0,0,0,16,72,72,32.3,34.47,1018.19,1,0
2022-11-02 15:23:47,894,325,-415,0,0,0,16,72,72,32.3,34.47,1018.19,1,0
2022-11-02 15:23:47,894,325,-415,0,0,0,16,72,72,32.3,34.47,1018.19,1,0
2022-11-02 15:23:47,894,325,-415,0,0,0,16,72,72,32.3,34.47,1018.19,1,0
2022-11-02 15:23:47,894,325,-415,0,0,0,16,72,72,32.3,34.47,1018.19,1,0
2022-11-02 15:23:47,894,325,-415,0,0,0,16,72,72,32.3,34.47,1018.19,1,0
2022-11-02 15:23:47,880,333,-423,0,0,0,16,74,76,32.3,34.47,1018.19,1,0
2022-11-02 15:23:47,880,333,-423,0,0,0,16,74,76,32.3,34.47,1018.19,1,0
2022-11-02 15:23:47,880,333,-423,0,0,0,16,74,76,32.3,34.47,1018.19,1,0
2022-11-02 15:23:47,880,333,-423,0,0,0,16,74,76,32.3,34.47,1018.19,1,0
2022-11-02 15:23:47,880,333,-423,0,0,0,16,74,76,32.3,34.47,1018.19,1,0
2022-11-02 15:23:47,880,333,-423,0,0,0,16,74,76,32.3,34.47,1018.19,1,0
2022-11-02 15:23:48,882,325,-421,0,-1,0,16,73,74,32.3,34.47,1018.19,1,0
2022-11-02 15:23:48,882,325,-421,0,-1,0,16,73,74,32.3,34.47,1018.19,1,0
2022-11-02 15:23:48,882,325,-421,0,-1,0,16,73,74,32.3,34.47,1018.19,1,0
2022-11-02 15:23:48,882,325,-421,0,-1,0,16,73,74,32.3,34.47,1018.19,1,0
2022-11-02 15:23:48,882,325,-421,0,-1,0,16,73,74,32.3,34.47,1018.19,1,0
2022-11-02 15:23:48,882,325,-421,0,-1,0,16,73,74,32.3,34.47,1018.19,1,0
2022-11-02 15:23:48,880,331,-421,0,0,0,14,74,75,32.3,34.47,1018.19,1,0
2022-11-02 15:23:48,880,331,-421,0,0,0,14,74,75,32.3,34.47,1018.19,1,0
2022-11-02 15:23:48,880,331,-421,0,0,0,14,74,75,32.3,34.47,1018.19,1,0
2022-11-02 15:23:48,880,331,-421,0,0,0,14,74,75,32.3,34.47,1018.19,1,0
2022-11-02 15:23:48,880,331,-421,0,0,0,14,74,75,32.3,34.47,1018.19,1,0
2022-11-02 15:23:48,880,331,-421,0,0,0,14,74,75,32.3,34.47,1018.19,1,0
2022-11-02 15:23:48,880,325,-411,0,0,0,15,74,70,32.3,34.47,1018.19,1,0
2022-11-02 15:23:48,880,325,-411,0,0,0,15,74,70,32.3,34.47,1018.19,1,0
2022-11-02 15:23:48,880,325,-411,0,0,0,15,74,70,32.3,34.47,1018.19,1,0
2022-11-02 15:23:48,880,325,-411,0,0,0,15,74,70,32.3,34.47,1018.19,1,0
2022-11-02 15:23:48,880,325,-411,0,0,0,15,74,70,32.3,34.47,1018.19,1,0
2022-11-02 15:23:48,880,325,-411,0,0,0,15,74,70,32.3,34.47,1018.19,1,0
2022-11-02 15:23:48,882,320,-425,0,0,0,14,74,70,32.3,34.47,1018.19,1,0
2022-11-02 15:23:48,882,320,-425,0,0,0,14,74,70,32.3,34.47,1018.19,1,0
2022-11-02 15:23:48,882,320,-425,0,0,0,14,74,70,32.3,34.47,1018.19,1,0
2022-11-02 15:23:48,882,320,-425,0,0,0,14,74,70,32.3,34.47,1018.19,1,0
2022-11-02 15:23:48,882,320,-425,0,0,0,14,74,70,32.3,34.47,1018.19,1,0
2022-11-02 15:23:48,882,320,-425,0,0,0,14,74,70,32.3,34.47,1018.19,1,0
2022-11-02 15:23:48,882,324,-425,0,0,0,19,73,74,32.3,34.47,1018.19,1,0
2022-11-02 15:23:48,882,324,-425,0,0,0,19,73,74,32.3,34.47,1018.19,1,0
2022-11-02 15:23:48,882,324,-425,0,0,0,19,73,74,32.3,34.47,1018.19,1,0
2022-11-02 15:23:48,882,324,-425,0,0,0,19,73,74,32.3,34.47,1018.19,1,0
2022-11-02 15:23:48,882,324,-425,0,0,0,19,73,74,32.3,34.47,1018.19,1,0
2022-11-02 15:23:48,882,324,-425,0,0,0,19,73,74,32.3,34.47,1018.19,1,0
2022-11-02 15:23:48,880,322,-427,0,0,0,17,72,72,32.3,34.49,1018.19,1,0
2022-11-02 15:23:48,880,322,-427,0,0,0,17,72,72,32.3,34.49,1018.19,1,0
2022-11-02 15:23:48,880,322,-427,0,0,0,17,72,72,32.3,34.49,1018.19,1,0
2022-11-02 15:23:48,880,322,-427,0,0,0,17,72,72,32.3,34.49,1018.19,1,0
2022-11-02 15:23:48,880,322,-427,0,0,0,17,72,72,32.3,34.49,1018.19,1,0
2022-11-02 15:23:48,880,322,-427,0,0,0,17,72,72,32.3,34.49,1018.19,1,0
2022-11-02 15:23:48,884,324,-421,0,0,0,15,76,74,32.3,34.49,1018.19,1,0
2022-11-02 15:23:48,884,324,-421,0,0,0,15,76,74,32.3,34.49,1018.19,1,0
2022-11-02 15:23:48,884,324,-421,0,0,0,15,76,74,32.3,34.49,1018.19,1,0
2022-11-02 15:23:48,884,324,-421,0,0,0,15,76,74,32.3,34.49,1018.19,1,0
2022-11-02 15:23:48,884,324,-421,0,0,0,15,76,74,32.3,34.49,1018.19,1,0
2022-11-02 15:23:48,884,324,-421,0,0,0,15,76,74,32.3,34.49,1018.19,1,0
2022-11-02 15:23:48,880,324,-425,0,0,0,16,72,68,32.3,34.49,1018.19,1,0
2022-11-02 15:23:48,880,324,-425,0,0,0,16,72,68,32.3,34.49,1018.19,1,0
2022-11-02 15:23:48,880,324,-425,0,0,0,16,72,68,32.3,34.49,1018.19,1,0
2022-11-02 15:23:48,880,324,-425,0,0,0,16,72,68,32.3,34.49,1018.19,1,0
2022-11-02 15:23:48,880,324,-425,0,0,0,16,72,68,32.3,34.49,1018.19,1,0
2022-11-02 15:23:48,880,324,-425,0,0,0,16,72,68,32.3,34.49,1018.19,1,0
2022-11-02 15:23:48,878,329,-429,0,0,0,15,70,70,32.3,34.49,1018.19,1,0
2022-11-02 15:23:48,878,329,-429,0,0,0,15,70,70,32.3,34.49,1018.19,1,0
2022-11-02 15:23:48,878,329,-429,0,0,0,15,70,70,32.3,34.49,1018.19,1,0
2022-11-02 15:23:48,878,329,-429,0,0,0,15,70,70,32.3,34.49,1018.19,1,0
2022-11-02 15:23:48,878,329,-429,0,0,0,15,70,70,32.3,34.49,1018.19,1,0
2022-11-02 15:23:48,878,329,-429,0,0,0,15,70,70,32.3,34.49,1018.19,1,0
2022-11-02 15:23:48,882,324,-425,0,0,0,17,73,77,32.3,34.49,1018.19,1,0
2022-11-02 15:23:48,882,324,-425,0,0,0,17,73,77,32.3,34.49,1018.19,1,0
2022-11-02 15:23:48,882,324,-425,0,0,0,17,73,77,32.3,34.49,1018.19,1,0
2022-11-02 15:23:48,882,324,-425,0,0,0,17,73,77,32.3,34.49,1018.19,1,0
2022-11-02 15:23:48,882,324,-425,0,0,0,17,73,77,32.3,34.49,1018.19,1,0
2022-11-02 15:23:48,882,324,-425,0,0,0,17,73,77,32.3,34.49,1018.19,1,0
2022-11-02 15:23:49,884,329,-413,0,0,0,17,72,74,32.3,34.49,1018.19,1,0
2022-11-02 15:23:49,884,329,-413,0,0,0,17,72,74,32.3,34.49,1018.19,1,0
2022-11-02 15:23:49,884,329,-413,0,0,0,17,72,74,32.3,34.49,1018.19,1,0
2022-11-02 15:23:49,884,329,-413,0,0,0,17,72,74,32.3,34.49,1018.19,1,0
2022-11-02 15:23:49,884,329,-413,0,0,0,17,72,74,32.3,34.49,1018.19,1,0
2022-11-02 15:23:49,884,329,-413,0,0,0,17,72,74,32.3,34.49,1018.19,1,0
2022-11-02 15:23:49,882,335,-423,0,0,0,18,72,74,32.3,34.49,1018.19,1,0
2022-11-02 15:23:49,882,335,-423,0,0,0,18,72,74,32.3,34.49,1018.19,1,0
2022-11-02 15:23:49,882,335,-423,0,0,0,18,72,74,32.3,34.49,1018.19,1,0
2022-11-02 15:23:49,882,335,-423,0,0,0,18,72,74,32.3,34.49,1018.19,1,0
2022-11-02 15:23:49,882,335,-423,0,0,0,18,72,74,32.3,34.49,1018.19,1,0
2022-11-02 15:23:49,882,335,-423,0,0,0,18,72,74,32.3,34.49,1018.19,1,0
2022-11-02 15:23:49,878,325,-419,0,0,0,16,72,71,32.3,34.49,1018.19,1,0
2022-11-02 15:23:49,878,325,-419,0,0,0,16,72,71,32.3,34.49,1018.19,1,0
2022-11-02 15:23:49,878,325,-419,0,0,0,16,72,71,32.3,34.49,1018.19,1,0
2022-11-02 15:23:49,878,325,-419,0,0,0,16,72,71,32.3,34.49,1018.19,1,0
2022-11-02 15:23:49,878,325,-419,0,0,0,16,72,71,32.3,34.49,1018.19,1,0
2022-11-02 15:23:49,878,325,-419,0,0,0,16,72,71,32.3,34.49,1018.19,1,0
2022-11-02 15:23:49,884,325,-423,0,1,0,14,73,70,32.3,34.49,1018.19,1,0
2022-11-02 15:23:49,884,325,-423,0,1,0,14,73,70,32.3,34.49,1018.19,1,0
2022-11-02 15:23:49,884,325,-423,0,1,0,14,73,70,32.3,34.49,1018.19,1,0
2022-11-02 15:23:49,884,325,-423,0,1,0,14,73,70,32.3,34.49,1018.19,1,0
2022-11-02 15:23:49,884,325,-423,0,1,0,14,73,70,32.3,34.49,1018.19,1,0
2022-11-02 15:23:49,884,325,-423,0,1,0,14,73,70,32.3,34.49,1018.19,1,0
2022-11-02 15:23:49,878,327,-425,0,1,0,13,72,79,32.3,34.49,1018.19,1,0
2022-11-02 15:23:49,878,327,-425,0,1,0,13,72,79,32.3,34.49,1018.19,1,0
2022-11-02 15:23:49,878,327,-425,0,1,0,13,72,79,32.3,34.49,1018.19,1,0
2022-11-02 15:23:49,878,327,-425,0,1,0,13,72,79,32.3,34.49,1018.19,1,0
2022-11-02 15:23:49,878,327,-425,0,1,0,13,72,79,32.3,34.49,1018.19,1,0
2022-11-02 15:23:49,878,327,-425,0,1,0,13,72,79,32.3,34.49,1018.19,1,0
2022-11-02 15:23:49,888,325,-413,0,0,0,14,74,67,32.3,34.5,1018.19,1,0
2022-11-02 15:23:49,888,325,-413,0,0,0,14,74,67,32.3,34.5,1018.19,1,0
2022-11-02 15:23:49,888,325,-413,0,0,0,14,74,67,32.3,34.5,1018.19,1,0
2022-11-02 15:23:49,888,325,-413,0,0,0,14,74,67,32.3,34.5,1018.19,1,0
2022-11-02 15:23:49,888,325,-413,0,0,0,14,74,67,32.3,34.5,1018.19,1,0
2022-11-02 15:23:49,888,325,-413,0,0,0,14,74,67,32.3,34.5,1018.19,1,0
2022-11-02 15:23:49,882,335,-425,2,2,0,17,74,74,32.3,34.5,1018.19,1,0
2022-11-02 15:23:49,882,335,-425,2,2,0,17,74,74,32.3,34.5,1018.19,1,0
2022-11-02 15:23:49,882,335,-425,2,2,0,17,74,74,32.3,34.5,1018.19,1,0
2022-11-02 15:23:49,882,335,-425,2,2,0,17,74,74,32.3,34.5,1018.19,1,0
2022-11-02 15:23:49,882,335,-425,2,2,0,17,74,74,32.3,34.5,1018.19,1,0
2022-11-02 15:23:49,882,335,-425,2,2,0,17,74,74,32.3,34.5,1018.19,1,0
2022-11-02 15:23:49,886,333,-419,1,1,0,16,73,71,32.3,34.5,1018.19,1,0
2022-11-02 15:23:49,886,333,-419,1,1,0,16,73,71,32.3,34.5,1018.19,1,0
2022-11-02 15:23:49,886,333,-419,1,1,0,16,73,71,32.3,34.5,1018.19,1,0
2022-11-02 15:23:49,886,333,-419,1,1,0,16,73,71,32.3,34.5,1018.19,1,0
2022-11-02 15:23:49,886,333,-419,1,1,0,16,73,71,32.3,34.5,1018.19,1,0
2022-11-02 15:23:49,886,333,-419,1,1,0,16,73,71,32.3,34.5,1018.19,1,0
2022-11-02 15:23:49,882,335,-419,1,0,0,17,73,70,32.3,34.5,1018.19,1,0
2022-11-02 15:23:49,882,335,-419,1,0,0,17,73,70,32.3,34.5,1018.19,1,0
2022-11-02 15:23:49,882,335,-419,1,0,0,17,73,70,32.3,34.5,1018.19,1,0
2022-11-02 15:23:49,882,335,-419,1,0,0,17,73,70,32.3,34.5,1018.19,1,0
2022-11-02 15:23:49,882,335,-419,1,0,0,17,73,70,32.3,34.5,1018.19,1,0
2022-11-02 15:23:49,882,335,-419,1,0,0,17,73,70,32.3,34.5,1018.19,1,0
2022-11-02 15:23:49,888,322,-427,0,1,0,14,73,75,32.3,34.5,1018.19,1,0
2022-11-02 15:23:49,888,322,-427,0,1,0,14,73,75,32.3,34.5,1018.19,1,0
2022-11-02 15:23:49,888,322,-427,0,1,0,14,73,75,32.3,34.5,1018.19,1,0
2022-11-02 15:23:49,888,322,-427,0,1,0,14,73,75,32.3,34.5,1018.19,1,0
2022-11-02 15:23:49,888,322,-427,0,1,0,14,73,75,32.3,34.5,1018.19,1,0
2022-11-02 15:23:49,888,322,-427,0,1,0,14,73,75,32.3,34.5,1018.19,1,0
2022-11-02 15:23:50,880,335,-417,0,1,0,16,75,75,32.3,34.5,1018.19,1,0
2022-11-02 15:23:50,880,335,-417,0,1,0,16,75,75,32.3,34.5,1018.19,1,0
2022-11-02 15:23:50,880,335,-417,0,1,0,16,75,75,32.3,34.5,1018.19,1,0
2022-11-02 15:23:50,880,335,-417,0,1,0,16,75,75,32.3,34.5,1018.19,1,0
2022-11-02 15:23:50,880,335,-417,0,1,0,16,75,75,32.3,34.5,1018.19,1,0
2022-11-02 15:23:50,880,335,-417,0,1,0,16,75,75,32.3,34.5,1018.19,1,0
2022-11-02 15:23:50,886,320,-396,0,0,0,15,73,74,32.3,34.5,1018.19,1,0
2022-11-02 15:23:50,886,320,-396,0,0,0,15,73,74,32.3,34.5,1018.19,1,0
2022-11-02 15:23:50,886,320,-396,0,0,0,15,73,74,32.3,34.5,1018.19,1,0
2022-11-02 15:23:50,886,320,-396,0,0,0,15,73,74,32.3,34.5,1018.19,1,0
2022-11-02 15:23:50,886,320,-396,0,0,0,15,73,74,32.3,34.5,1018.19,1,0
2022-11-02 15:23:50,886,320,-396,0,0,0,15,73,74,32.3,34.5,1018.19,1,0
2022-11-02 15:23:50,888,331,-404,-1,0,0,14,73,75,32.3,34.5,1018.19,1,0
2022-11-02 15:23:50,888,331,-404,-1,0,0,14,73,75,32.3,34.5,1018.19,1,0
2022-11-02 15:23:50,888,331,-404,-1,0,0,14,73,75,32.3,34.5,1018.19,1,0
2022-11-02 15:23:50,888,331,-404,-1,0,0,14,73,75,32.3,34.5,1018.19,1,0
2022-11-02 15:23:50,888,331,-404,-1,0,0,14,73,75,32.3,34.5,1018.19,1,0
2022-11-02 15:23:50,888,331,-404,-1,0,0,14,73,75,32.3,34.5,1018.19,1,0
2022-11-02 15:23:50,878,335,-411,0,0,0,17,71,70,32.3,34.5,1018.19,1,0
2022-11-02 15:23:50,878,335,-411,0,0,0,17,71,70,32.3,34.5,1018.19,1,0
2022-11-02 15:23:50,878,335,-411,0,0,0,17,71,70,32.3,34.5,1018.19,1,0
2022-11-02 15:23:50,878,335,-411,0,0,0,17,71,70,32.3,34.5,1018.19,1,0
2022-11-02 15:23:50,878,335,-411,0,0,0,17,71,70,32.3,34.5,1018.19,1,0
2022-11-02 15:23:50,878,335,-411,0,0,0,17,71,70,32.3,34.5,1018.19,1,0
2022-11-02 15:23:50,882,325,-413,0,-1,0,11,72,74,32.3,34.5,1018.19,1,0
2022-11-02 15:23:50,882,325,-413,0,-1,0,11,72,74,32.3,34.5,1018.19,1,0
2022-11-02 15:23:50,882,325,-413,0,-1,0,11,72,74,32.3,34.5,1018.19,1,0
2022-11-02 15:23:50,882,325,-413,0,-1,0,11,72,74,32.3,34.5,1018.19,1,0
2022-11-02 15:23:50,882,325,-413,0,-1,0,11,72,74,32.3,34.5,1018.19,1,0
2022-11-02 15:23:50,882,325,-413,0,-1,0,11,72,74,32.3,34.5,1018.19,1,0
2022-11-02 15:23:50,890,312,-423,0,0,0,15,71,74,32.3,34.5,1018.15,1,0
2022-11-02 15:23:50,890,312,-423,0,0,0,15,71,74,32.3,34.5,1018.15,1,0
2022-11-02 15:23:50,890,312,-423,0,0,0,15,71,74,32.3,34.5,1018.15,1,0
2022-11-02 15:23:50,890,312,-423,0,0,0,15,71,74,32.3,34.5,1018.15,1,0
2022-11-02 15:23:50,890,312,-423,0,0,0,15,71,74,32.3,34.5,1018.15,1,0
2022-11-02 15:23:50,890,312,-423,0,0,0,15,71,74,32.3,34.5,1018.15,1,0
2022-11-02 15:23:50,882,329,-417,0,0,0,17,72,76,32.3,34.5,1018.15,1,0
2022-11-02 15:23:50,882,329,-417,0,0,0,17,72,76,32.3,34.5,1018.15,1,0
2022-11-02 15:23:50,882,329,-417,0,0,0,17,72,76,32.3,34.5,1018.15,1,0
2022-11-02 15:23:50,882,329,-417,0,0,0,17,72,76,32.3,34.5,1018.15,1,0
2022-11-02 15:23:50,882,329,-417,0,0,0,17,72,76,32.3,34.5,1018.15,1,0
2022-11-02 15:23:50,882,329,-417,0,0,0,17,72,76,32.3,34.5,1018.15,1,0
2022-11-02 15:23:50,874,331,-407,0,0,0,15,72,71,32.3,34.5,1018.15,1,0
2022-11-02 15:23:50,874,331,-407,0,0,0,15,72,71,32.3,34.5,1018.15,1,0
2022-11-02 15:23:50,874,331,-407,0,0,0,15,72,71,32.3,34.5,1018.15,1,0
2022-11-02 15:23:50,874,331,-407,0,0,0,15,72,71,32.3,34.5,1018.15,1,0
2022-11-02 15:23:50,874,331,-407,0,0,0,15,72,71,32.3,34.5,1018.15,1,0
2022-11-02 15:23:50,874,331,-407,0,0,0,15,72,71,32.3,34.5,1018.15,1,0
2022-11-02 15:23:50,888,324,-411,0,0,0,14,73,71,32.3,34.5,1018.15,1,0
2022-11-02 15:23:50,888,324,-411,0,0,0,14,73,71,32.3,34.5,1018.15,1,0
2022-11-02 15:23:50,888,324,-411,0,0,0,14,73,71,32.3,34.5,1018.15,1,0
2022-11-02 15:23:50,888,324,-411,0,0,0,14,73,71,32.3,34.5,1018.15,1,0
2022-11-02 15:23:50,888,324,-411,0,0,0,14,73,71,32.3,34.5,1018.15,1,0
2022-11-02 15:23:50,888,324,-411,0,0,0,14,73,71,32.3,34.5,1018.15,1,0
2022-11-02 15:23:50,876,333,-413,0,0,0,15,71,72,32.3,34.5,1018.15,1,0
2022-11-02 15:23:50,876,333,-413,0,0,0,15,71,72,32.3,34.5,1018.15,1,0
2022-11-02 15:23:50,876,333,-413,0,0,0,15,71,72,32.3,34.5,1018.15,1,0
2022-11-02 15:23:50,876,333,-413,0,0,0,15,71,72,32.3,34.5,1018.15,1,0
2022-11-02 15:23:50,876,333,-413,0,0,0,15,71,72,32.3,34.5,1018.15,1,0
2022-11-02 15:23:50,876,333,-413,0,0,0,15,71,72,32.3,34.5,1018.15,1,0
2022-11-02 15:23:51,897,320,-415,0,0,0,12,71,72,32.3,34.5,1018.15,1,0
2022-11-02 15:23:51,897,320,-415,0,0,0,12,71,72,32.3,34.5,1018.15,1,0
2022-11-02 15:23:51,897,320,-415,0,0,0,12,71,72,32.3,34.5,1018.15,1,0
2022-11-02 15:23:51,897,320,-415,0,0,0,12,71,72,32.3,34.5,1018.15,1,0
2022-11-02 15:23:51,897,320,-415,0,0,0,12,71,72,32.3,34.5,1018.15,1,0
2022-11-02 15:23:51,897,320,-415,0,0,0,12,71,72,32.3,34.5,1018.15,1,0
2022-11-02 15:23:51,892,361,-419,0,-1,0,16,75,71,32.3,34.5,1018.15,1,0
2022-11-02 15:23:51,892,361,-419,0,-1,0,16,75,71,32.3,34.5,1018.15,1,0
2022-11-02 15:23:51,892,361,-419,0,-1,0,16,75,71,32.3,34.5,1018.15,1,0
2022-11-02 15:23:51,892,361,-419,0,-1,0,16,75,71,32.3,34.5,1018.15,1,0
2022-11-02 15:23:51,892,361,-419,0,-1,0,16,75,71,32.3,34.5,1018.15,1,0
2022-11-02 15:23:51,892,361,-419,0,-1,0,16,75,71,32.3,34.5,1018.15,1,0
2022-11-02 15:23:51,880,347,-437,1,-1,0,14,72,75,32.3,34.5,1018.15,1,0
2022-11-02 15:23:51,880,347,-437,1,-1,0,14,72,75,32.3,34.5,1018.15,1,0
2022-11-02 15:23:51,880,347,-437,1,-1,0,14,72,75,32.3,34.5,1018.15,1,0
2022-11-02 15:23:51,880,347,-437,1,-1,0,14,72,75,32.3,34.5,1018.15,1,0
2022-11-02 15:23:51,880,347,-437,1,-1,0,14,72,75,32.3,34.5,1018.15,1,0
2022-11-02 15:23:51,880,347,-437,1,-1,0,14,72,75,32.3,34.5,1018.15,1,0
2022-11-02 15:23:51,880,310,-404,-2,0,0,16,72,71,32.3,34.5,1018.15,1,0
2022-11-02 15:23:51,880,310,-404,-2,0,0,16,72,71,32.3,34.5,1018.15,1,0
2022-11-02 15:23:51,880,310,-404,-2,0,0,16,72,71,32.3,34.5,1018.15,1,0
2022-11-02 15:23:51,880,310,-404,-2,0,0,16,72,71,32.3,34.5,1018.15,1,0
2022-11-02 15:23:51,880,310,-404,-2,0,0,16,72,71,32.3,34.5,1018.15,1,0
2022-11-02 15:23:51,880,310,-404,-2,0,0,16,72,71,32.3,34.5,1018.15,1,0
2022-11-02 15:23:51,882,353,-402,3,2,-1,13,71,72,32.3,34.5,1018.15,1,0
2022-11-02 15:23:51,882,353,-402,3,2,-1,13,71,72,32.3,34.5,1018.15,1,0
2022-11-02 15:23:51,882,353,-402,3,2,-1,13,71,72,32.3,34.5,1018.15,1,0
2022-11-02 15:23:51,882,353,-402,3,2,-1,13,71,72,32.3,34.5,1018.15,1,0
2022-11-02 15:23:51,882,353,-402,3,2,-1,13,71,72,32.3,34.5,1018.15,1,0
2022-11-02 15:23:51,882,353,-402,3,2,-1,13,71,72,32.3,34.5,1018.15,1,0
2022-11-02 15:23:51,862,333,-456,2,-4,1,15,74,75,32.3,34.49,1018.16,1,0
2022-11-02 15:23:51,862,333,-456,2,-4,1,15,74,75,32.3,34.49,1018.16,1,0
2022-11-02 15:23:51,862,333,-456,2,-4,1,15,74,75,32.3,34.49,1018.16,1,0
2022-11-02 15:23:51,862,333,-456,2,-4,1,15,74,75,32.3,34.49,1018.16,1,0
2022-11-02 15:23:51,862,333,-456,2,-4,1,15,74,75,32.3,34.49,1018.16,1,0
2022-11-02 15:23:51,862,333,-456,2,-4,1,15,74,75,32.3,34.49,1018.16,1,0
2022-11-02 15:23:51,952,355,-378,0,2,1,15,74,77,32.3,34.49,1018.16,1,0
2022-11-02 15:23:51,952,355,-378,0,2,1,15,74,77,32.3,34.49,1018.16,1,0
2022-11-02 15:23:51,952,355,-378,0,2,1,15,74,77,32.3,34.49,1018.16,1,0
2022-11-02 15:23:51,952,355,-378,0,2,1,15,74,77,32.3,34.49,1018.16,1,0
2022-11-02 15:23:51,952,355,-378,0,2,1,15,74,77,32.3,34.49,1018.16,1,0
2022-11-02 15:23:51,952,355,-378,0,2,1,15,74,77,32.3,34.49,1018.16,1,0
2022-11-02 15:23:51,894,437,-413,18,-9,-1,16,75,74,32.3,34.49,1018.16,1,0
2022-11-02 15:23:51,894,437,-413,18,-9,-1,16,75,74,32.3,34.49,1018.16,1,0
2022-11-02 15:23:51,894,437,-413,18,-9,-1,16,75,74,32.3,34.49,1018.16,1,0
2022-11-02 15:23:51,894,437,-413,18,-9,-1,16,75,74,32.3,34.49,1018.16,1,0
2022-11-02 15:23:51,894,437,-413,18,-9,-1,16,75,74,32.3,34.49,1018.16,1,0
2022-11-02 15:23:51,894,437,-413,18,-9,-1,16,75,74,32.3,34.49,1018.16,1,0
2022-11-02 15:23:51,866,325,-353,19,-1,-2,15,72,71,32.3,34.49,1018.16,1,0
2022-11-02 15:23:51,866,325,-353,19,-1,-2,15,72,71,32.3,34.49,1018.16,1,0
2022-11-02 15:23:51,866,325,-353,19,-1,-2,15,72,71,32.3,34.49,1018.16,1,0
2022-11-02 15:23:51,866,325,-353,19,-1,-2,15,72,71,32.3,34.49,1018.16,1,0
2022-11-02 15:23:51,866,325,-353,19,-1,-2,15,72,71,32.3,34.49,1018.16,1,0
2022-11-02 15:23:51,866,325,-353,19,-1,-2,15,72,71,32.3,34.49,1018.16,1,0
2022-11-02 15:23:51,817,306,-486,39,-1,-16,18,73,67,32.3,34.49,1018.16,1,0
2022-11-02 15:23:51,817,306,-486,39,-1,-16,18,73,67,32.3,34.49,1018.16,1,0
2022-11-02 15:23:51,817,306,-486,39,-1,-16,18,73,67,32.3,34.49,1018.16,1,0
2022-11-02 15:23:51,817,306,-486,39,-1,-16,18,73,67,32.3,34.49,1018.16,1,0
2022-11-02 15:23:51,817,306,-486,39,-1,-16,18,73,67,32.3,34.49,1018.16,1,0
2022-11-02 15:23:51,817,306,-486,39,-1,-16,18,73,67,32.3,34.49,1018.16,1,0
2022-11-02 15:23:52,1083,411,-517,33,8,-10,16,79,67,32.3,34.49,1018.16,1,0
2022-11-02 15:23:52,1083,411,-517,33,8,-10,16,79,67,32.3,34.49,1018.16,1,0
2022-11-02 15:23:52,1083,411,-517,33,8,-10,16,79,67,32.3,34.49,1018.16,1,0
2022-11-02 15:23:52,1083,411,-517,33,8,-10,16,79,67,32.3,34.49,1018.16,1,0
2022-11-02 15:23:52,1083,411,-517,33,8,-10,16,79,67,32.3,34.49,1018.16,1,0
2022-11-02 15:23:52,1083,411,-517,33,8,-10,16,79,67,32.3,34.49,1018.16,1,0
2022-11-02 15:23:52,819,304,-419,35,6,-14,15,78,64,32.3,34.49,1018.16,1,0
2022-11-02 15:23:52,819,304,-419,35,6,-14,15,78,64,32.3,34.49,1018.16,1,0
2022-11-02 15:23:52,819,304,-419,35,6,-14,15,78,64,32.3,34.49,1018.16,1,0
2022-11-02 15:23:52,819,304,-419,35,6,-14,15,78,64,32.3,34.49,1018.16,1,0
2022-11-02 15:23:52,819,304,-419,35,6,-14,15,78,64,32.3,34.49,1018.16,1,0
2022-11-02 15:23:52,819,304,-419,35,6,-14,15,78,64,32.3,34.49,1018.16,1,0
2022-11-02 15:23:52,841,273,-456,37,7,-20,13,80,56,32.3,34.49,1018.16,1,0
2022-11-02 15:23:52,841,273,-456,37,7,-20,13,80,56,32.3,34.49,1018.16,1,0
2022-11-02 15:23:52,841,273,-456,37,7,-20,13,80,56,32.3,34.49,1018.16,1,0
2022-11-02 15:23:52,841,273,-456,37,7,-20,13,80,56,32.3,34.49,1018.16,1,0
2022-11-02 15:23:52,841,273,-456,37,7,-20,13,80,56,32.3,34.49,1018.16,1,0
2022-11-02 15:23:52,841,273,-456,37,7,-20,13,80,56,32.3,34.49,1018.16,1,0
2022-11-02 15:23:52,895,251,-513,30,3,-15,10,80,52,32.3,34.49,1018.16,1,0
2022-11-02 15:23:52,895,251,-513,30,3,-15,10,80,52,32.3,34.49,1018.16,1,0
2022-11-02 15:23:52,895,251,-513,30,3,-15,10,80,52,32.3,34.49,1018.16,1,0
2022-11-02 15:23:52,895,251,-513,30,3,-15,10,80,52,32.3,34.49,1018.16,1,0
2022-11-02 15:23:52,895,251,-513,30,3,-15,10,80,52,32.3,34.49,1018.16,1,0
2022-11-02 15:23:52,895,251,-513,30,3,-15,10,80,52,32.3,34.49,1018.16,1,0
2022-11-02 15:23:52,845,255,-556,26,-2,-13,7,84,48,32.3,34.49,1018.16,1,0
2022-11-02 15:23:52,845,255,-556,26,-2,-13,7,84,48,32.3,34.49,1018.16,1,0
2022-11-02 15:23:52,845,255,-556,26,-2,-13,7,84,48,32.3,34.49,1018.16,1,0
2022-11-02 15:23:52,845,255,-556,26,-2,-13,7,84,48,32.3,34.49,1018.16,1,0
2022-11-02 15:23:52,845,255,-556,26,-2,-13,7,84,48,32.3,34.49,1018.16,1,0
2022-11-02 15:23:52,845,255,-556,26,-2,-13,7,84,48,32.3,34.49,1018.16,1,0
2022-11-02 15:23:52,903,189,-517,12,2,-7,5,84,44,32.3,34.5,1018.13,1,0
2022-11-02 15:23:52,903,189,-517,12,2,-7,5,84,44,32.3,34.5,1018.13,1,0
2022-11-02 15:23:52,903,189,-517,12,2,-7,5,84,44,32.3,34.5,1018.13,1,0
2022-11-02 15:23:52,903,189,-517,12,2,-7,5,84,44,32.3,34.5,1018.13,1,0
2022-11-02 15:23:52,903,189,-517,12,2,-7,5,84,44,32.3,34.5,1018.13,1,0
2022-11-02 15:23:52,903,189,-517,12,2,-7,5,84,44,32.3,34.5,1018.13,1,0
2022-11-02 15:23:52,741,54,-491,-8,12,-9,4,85,40,32.3,34.5,1018.13,1,0
2022-11-02 15:23:52,741,54,-491,-8,12,-9,4,85,40,32.3,34.5,1018.13,1,0
2022-11-02 15:23:52,741,54,-491,-8,12,-9,4,85,40,32.3,34.5,1018.13,1,0
2022-11-02 15:23:52,741,54,-491,-8,12,-9,4,85,40,32.3,34.5,1018.13,1,0
2022-11-02 15:23:52,741,54,-491,-8,12,-9,4,85,40,32.3,34.5,1018.13,1,0
2022-11-02 15:23:52,741,54,-491,-8,12,-9,4,85,40,32.3,34.5,1018.13,1,0
2022-11-02 15:23:52,817,298,-659,-15,10,-18,2,85,39,32.3,34.5,1018.13,1,0
2022-11-02 15:23:52,817,298,-659,-15,10,-18,2,85,39,32.3,34.5,1018.13,1,0
2022-11-02 15:23:52,817,298,-659,-15,10,-18,2,85,39,32.3,34.5,1018.13,1,0
2022-11-02 15:23:52,817,298,-659,-15,10,-18,2,85,39,32.3,34.5,1018.13,1,0
2022-11-02 15:23:52,817,298,-659,-15,10,-18,2,85,39,32.3,34.5,1018.13,1,0
2022-11-02 15:23:52,817,298,-659,-15,10,-18,2,85,39,32.3,34.5,1018.13,1,0
2022-11-02 15:23:52,845,380,-612,-13,5,-9,-1,83,46,32.3,34.5,1018.13,1,0
2022-11-02 15:23:52,845,380,-612,-13,5,-9,-1,83,46,32.3,34.5,1018.13,1,0
2022-11-02 15:23:52,845,380,-612,-13,5,-9,-1,83,46,32.3,34.5,1018.13,1,0
2022-11-02 15:23:52,845,380,-612,-13,5,-9,-1,83,46,32.3,34.5,1018.13,1,0
2022-11-02 15:23:52,845,380,-612,-13,5,-9,-1,83,46,32.3,34.5,1018.13,1,0
2022-11-02 15:23:52,845,380,-612,-13,5,-9,-1,83,46,32.3,34.5,1018.13,1,0
2022-11-02 15:23:52,927,400,-390,-5,8,-10,0,84,49,32.3,34.5,1018.13,1,0
2022-11-02 15:23:52,927,400,-390,-5,8,-10,0,84,49,32.3,34.5,1018.13,1,0
2022-11-02 15:23:52,927,400,-390,-5,8,-10,0,84,49,32.3,34.5,1018.13,1,0
2022-11-02 15:23:52,927,400,-390,-5,8,-10,0,84,49,32.3,34.5,1018.13,1,0
2022-11-02 15:23:52,927,400,-390,-5,8,-10,0,84,49,32.3,34.5,1018.13,1,0
2022-11-02 15:23:52,927,400,-390,-5,8,-10,0,84,49,32.3,34.5,1018.13,1,0
2022-11-02 15:23:53,872,429,-242,32,-16,-3,-2,84,45,32.3,34.5,1018.13,1,0
2022-11-02 15:23:53,872,429,-242,32,-16,-3,-2,84,45,32.3,34.5,1018.13,1,0
2022-11-02 15:23:53,872,429,-242,32,-16,-3,-2,84,45,32.3,34.5,1018.13,1,0
2022-11-02 15:23:53,872,429,-242,32,-16,-3,-2,84,45,32.3,34.5,1018.13,1,0
2022-11-02 15:23:53,872,429,-242,32,-16,-3,-2,84,45,32.3,34.5,1018.13,1,0
2022-11-02 15:23:53,872,429,-242,32,-16,-3,-2,84,45,32.3,34.5,1018.13,1,0
2022-11-02 15:23:53,745,347,-517,2,-8,-5,-1,87,44,32.3,34.5,1018.13,1,0
2022-11-02 15:23:53,745,347,-517,2,-8,-5,-1,87,44,32.3,34.5,1018.13,1,0
2022-11-02 15:23:53,745,347,-517,2,-8,-5,-1,87,44,32.3,34.5,1018.13,1,0
2022-11-02 15:23:53,745,347,-517,2,-8,-5,-1,87,44,32.3,34.5,1018.13,1,0
2022-11-02 15:23:53,745,347,-517,2,-8,-5,-1,87,44,32.3,34.5,1018.13,1,0
2022-11-02 15:23:53,745,347,-517,2,-8,-5,-1,87,44,32.3,34.5,1018.13,1,0
2022-11-02 15:23:53,854,361,-503,30,0,-7,-3,86,47,32.3,34.5,1018.13,1,0
2022-11-02 15:23:53,854,361,-503,30,0,-7,-3,86,47,32.3,34.5,1018.13,1,0
2022-11-02 15:23:53,854,361,-503,30,0,-7,-3,86,47,32.3,34.5,1018.13,1,0
2022-11-02 15:23:53,854,361,-503,30,0,-7,-3,86,47,32.3,34.5,1018.13,1,0
2022-11-02 15:23:53,854,361,-503,30,0,-7,-3,86,47,32.3,34.5,1018.13,1,0
2022-11-02 15:23:53,854,361,-503,30,0,-7,-3,86,47,32.3,34.5,1018.13,1,0
2022-11-02 15:23:53,851,368,-474,27,11,-9,-3,89,46,32.3,34.5,1018.13,1,0
2022-11-02 15:23:53,851,368,-474,27,11,-9,-3,89,46,32.3,34.5,1018.13,1,0
2022-11-02 15:23:53,851,368,-474,27,11,-9,-3,89,46,32.3,34.5,1018.13,1,0
2022-11-02 15:23:53,851,368,-474,27,11,-9,-3,89,46,32.3,34.5,1018.13,1,0
2022-11-02 15:23:53,851,368,-474,27,11,-9,-3,89,46,32.3,34.5,1018.13,1,0
2022-11-02 15:23:53,851,368,-474,27,11,-9,-3,89,46,32.3,34.5,1018.13,1,0
2022-11-02 15:23:53,813,333,-540,33,11,-12,-8,87,42,32.3,34.5,1018.13,1,0
2022-11-02 15:23:53,813,333,-540,33,11,-12,-8,87,42,32.3,34.5,1018.13,1,0
2022-11-02 15:23:53,813,333,-540,33,11,-12,-8,87,42,32.3,34.5,1018.13,1,0
2022-11-02 15:23:53,813,333,-540,33,11,-12,-8,87,42,32.3,34.5,1018.13,1,0
2022-11-02 15:23:53,813,333,-540,33,11,-12,-8,87,42,32.3,34.5,1018.13,1,0
2022-11-02 15:23:53,813,333,-540,33,11,-12,-8,87,42,32.3,34.5,1018.13,1,0
2022-11-02 15:23:53,821,294,-542,18,9,-8,-7,85,39,32.3,34.5,1018.13,1,0
2022-11-02 15:23:53,821,294,-542,18,9,-8,-7,85,39,32.3,34.5,1018.13,1,0
2022-11-02 15:23:53,821,294,-542,18,9,-8,-7,85,39,32.3,34.5,1018.13,1,0
2022-11-02 15:23:53,821,294,-542,18,9,-8,-7,85,39,32.3,34.5,1018.13,1,0
2022-11-02 15:23:53,821,294,-542,18,9,-8,-7,85,39,32.3,34.5,1018.13,1,0
2022-11-02 15:23:53,821,294,-542,18,9,-8,-7,85,39,32.3,34.5,1018.13,1,0
2022-11-02 15:23:53,804,162,-591,8,8,2,-10,85,30,32.3,34.51,1018.17,1,0
2022-11-02 15:23:53,804,162,-591,8,8,2,-10,85,30,32.3,34.51,1018.17,1,0
2022-11-02 15:23:53,804,162,-591,8,8,2,-10,85,30,32.3,34.51,1018.17,1,0
2022-11-02 15:23:53,804,162,-591,8,8,2,-10,85,30,32.3,34.51,1018.17,1,0
2022-11-02 15:23:53,804,162,-591,8,8,2,-10,85,30,32.3,34.51,1018.17,1,0
2022-11-02 15:23:53,804,162,-591,8,8,2,-10,85,30,32.3,34.51,1018.17,1,0
2022-11-02 15:23:53,851,83,-634,-8,5,25,-9,84,30,32.3,34.51,1018.17,1,0
2022-11-02 15:23:53,851,83,-634,-8,5,25,-9,84,30,32.3,34.51,1018.17,1,0
2022-11-02 15:23:53,851,83,-634,-8,5,25,-9,84,30,32.3,34.51,1018.17,1,0
2022-11-02 15:23:53,851,83,-634,-8,5,25,-9,84,30,32.3,34.51,1018.17,1,0
2022-11-02 15:23:53,851,83,-634,-8,5,25,-9,84,30,32.3,34.51,1018.17,1,0
2022-11-02 15:23:53,851,83,-634,-8,5,25,-9,84,30,32.3,34.51,1018.17,1,0
2022-11-02 15:23:53,853,304,-394,-21,22,23,-8,86,31,32.3,34.51,1018.17,1,0
2022-11-02 15:23:53,853,304,-394,-21,22,23,-8,86,31,32.3,34.51,1018.17,1,0
2022-11-02 15:23:53,853,304,-394,-21,22,23,-8,86,31,32.3,34.51,1018.17,1,0
2022-11-02 15:23:53,853,304,-394,-21,22,23,-8,86,31,32.3,34.51,1018.17,1,0
2022-11-02 15:23:53,853,304,-394,-21,22,23,-8,86,31,32.3,34.51,1018.17,1,0
2022-11-02 15:23:53,853,304,-394,-21,22,23,-8,86,31,32.3,34.51,1018.17,1,0
2022-11-02 15:23:53,911,378,-439,-6,26,17,-2,87,32,32.3,34.51,1018.17,1,0
2022-11-02 15:23:53,911,378,-439,-6,26,17,-2,87,32,32.3,34.51,1018.17,1,0
2022-11-02 15:23:53,911,378,-439,-6,26,17,-2,87,32,32.3,34.51,1018.17,1,0
2022-11-02 15:23:53,911,378,-439,-6,26,17,-2,87,32,32.3,34.51,1018.17,1,0
2022-11-02 15:23:53,911,378,-439,-6,26,17,-2,87,32,32.3,34.51,1018.17,1,0
2022-11-02 15:23:53,911,378,-439,-6,26,17,-2,87,32,32.3,34.51,1018.17,1,0
2022-11-02 15:23:54,919,271,-445,0,20,22,2,85,39,32.3,34.51,1018.17,1,0
2022-11-02 15:23:54,919,271,-445,0,20,22,2,85,39,32.3,34.51,1018.17,1,0
2022-11-02 15:23:54,919,271,-445,0,20,22,2,85,39,32.3,34.51,1018.17,1,0
2022-11-02 15:23:54,919,271,-445,0,20,22,2,85,39,32.3,34.51,1018.17,1,0
2022-11-02 15:23:54,919,271,-445,0,20,22,2,85,39,32.3,34.51,1018.17,1,0
2022-11-02 15:23:54,919,271,-445,0,20,22,2,85,39,32.3,34.51,1018.17,1,0
2022-11-02 15:23:54,954,171,-388,9,16,27,3,87,36,32.3,34.51,1018.17,1,0
2022-11-02 15:23:54,954,171,-388,9,16,27,3,87,36,32.3,34.51,1018.17,1,0
2022-11-02 15:23:54,954,171,-388,9,16,27,3,87,36,32.3,34.51,1018.17,1,0
2022-11-02 15:23:54,954,171,-388,9,16,27,3,87,36,32.3,34.51,1018.17,1,0
2022-11-02 15:23:54,954,171,-388,9,16,27,3,87,36,32.3,34.51,1018.17,1,0
2022-11-02 15:23:54,954,171,-388,9,16,27,3,87,36,32.3,34.51,1018.17,1,0
2022-11-02 15:23:54,1001,115,-284,12,11,30,6,84,39,32.3,34.51,1018.17,1,0
2022-11-02 15:23:54,1001,115,-284,12,11,30,6,84,39,32.3,34.51,1018.17,1,0
2022-11-02 15:23:54,1001,115,-284,12,11,30,6,84,39,32.3,34.51,1018.17,1,0
2022-11-02 15:23:54,1001,115,-284,12,11,30,6,84,39,32.3,34.51,1018.17,1,0
2022-11-02 15:23:54,1001,115,-284,12,11,30,6,84,39,32.3,34.51,1018.17,1,0
2022-11-02 15:23:54,1001,115,-284,12,11,30,6,84,39,32.3,34.51,1018.17,1,0
2022-11-02 15:23:54,964,15,-290,-2,9,30,13,84,40,32.3,34.51,1018.17,1,0
2022-11-02 15:23:54,964,15,-290,-2,9,30,13,84,40,32.3,34.51,1018.17,1,0
2022-11-02 15:23:54,964,15,-290,-2,9,30,13,84,40,32.3,34.51,1018.17,1,0
2022-11-02 15:23:54,964,15,-290,-2,9,30,13,84,40,32.3,34.51,1018.17,1,0
2022-11-02 15:23:54,964,15,-290,-2,9,30,13,84,40,32.3,34.51,1018.17,1,0
2022-11-02 15:23:54,964,15,-290,-2,9,30,13,84,40,32.3,34.51,1018.17,1,0
2022-11-02 15:23:54,985,-29,-255,-8,5,34,15,79,30,32.3,34.51,1018.17,1,0
2022-11-02 15:23:54,985,-29,-255,-8,5,34,15,79,30,32.3,34.51,1018.17,1,0
2022-11-02 15:23:54,985,-29,-255,-8,5,34,15,79,30,32.3,34.51,1018.17,1,0
2022-11-02 15:23:54,985,-29,-255,-8,5,34,15,79,30,32.3,34.51,1018.17,1,0
2022-11-02 15:23:54,985,-29,-255,-8,5,34,15,79,30,32.3,34.51,1018.17,1,0
2022-11-02 15:23:54,985,-29,-255,-8,5,34,15,79,30,32.3,34.51,1018.17,1,0
2022-11-02 15:23:54,976,-103,-304,-7,4,25,18,80,38,32.3,34.51,1018.17,1,0
2022-11-02 15:23:54,976,-103,-304,-7,4,25,18,80,38,32.3,34.51,1018.17,1,0
2022-11-02 15:23:54,976,-103,-304,-7,4,25,18,80,38,32.3,34.51,1018.17,1,0
2022-11-02 15:23:54,976,-103,-304,-7,4,25,18,80,38,32.3,34.51,1018.17,1,0
2022-11-02 15:23:54,976,-103,-304,-7,4,25,18,80,38,32.3,34.51,1018.17,1,0
2022-11-02 15:23:54,976,-103,-304,-7,4,25,18,80,38,32.3,34.51,1018.17,1,0
2022-11-02 15:23:54,954,-107,-294,2,1,11,22,76,40,32.3,34.14,1018.1,1,0
2022-11-02 15:23:54,954,-107,-294,2,1,11,22,76,40,32.3,34.14,1018.1,1,0
2022-11-02 15:23:54,954,-107,-294,2,1,11,22,76,40,32.3,34.14,1018.1,1,0
2022-11-02 15:23:54,954,-107,-294,2,1,11,22,76,40,32.3,34.14,1018.1,1,0
2022-11-02 15:23:54,954,-107,-294,2,1,11,22,76,40,32.3,34.14,1018.1,1,0
2022-11-02 15:23:54,954,-107,-294,2,1,11,22,76,40,32.3,34.14,1018.1,1,0
2022-11-02 15:23:54,970,-148,-267,7,1,3,25,76,36,32.3,34.14,1018.1,1,0
2022-11-02 15:23:54,970,-148,-267,7,1,3,25,76,36,32.3,34.14,1018.1,1,0
2022-11-02 15:23:54,970,-148,-267,7,1,3,25,76,36,32.3,34.14,1018.1,1,0
2022-11-02 15:23:54,970,-148,-267,7,1,3,25,76,36,32.3,34.14,1018.1,1,0
2022-11-02 15:23:54,970,-148,-267,7,1,3,25,76,36,32.3,34.14,1018.1,1,0
2022-11-02 15:23:54,970,-148,-267,7,1,3,25,76,36,32.3,34.14,1018.1,1,0
2022-11-02 15:23:54,977,-115,-271,4,2,0,23,75,38,32.3,34.14,1018.1,1,0
2022-11-02 15:23:54,977,-115,-271,4,2,0,23,75,38,32.3,34.14,1018.1,1,0
2022-11-02 15:23:54,977,-115,-271,4,2,0,23,75,38,32.3,34.14,1018.1,1,0
2022-11-02 15:23:54,977,-115,-271,4,2,0,23,75,38,32.3,34.14,1018.1,1,0
2022-11-02 15:23:54,977,-115,-271,4,2,0,23,75,38,32.3,34.14,1018.1,1,0
2022-11-02 15:23:54,977,-115,-271,4,2,0,23,75,38,32.3,34.14,1018.1,1,0
2022-11-02 15:23:54,979,-103,-261,-2,-1,-3,25,74,41,32.3,34.14,1018.1,1,0
2022-11-02 15:23:54,979,-103,-261,-2,-1,-3,25,74,41,32.3,34.14,1018.1,1,0
2022-11-02 15:23:54,979,-103,-261,-2,-1,-3,25,74,41,32.3,34.14,1018.1,1,0
2022-11-02 15:23:54,979,-103,-261,-2,-1,-3,25,74,41,32.3,34.14,1018.1,1,0
2022-11-02 15:23:54,979,-103,-261,-2,-1,-3,25,74,41,32.3,34.14,1018.1,1,0
2022-11-02 15:23:54,979,-103,-261,-2,-1,-3,25,74,41,32.3,34.14,1018.1,1,0
2022-11-02 15:23:55,966,-97,-290,3,-2,-3,24,73,42,32.3,34.14,1018.1,1,0
2022-11-02 15:23:55,966,-97,-290,3,-2,-3,24,73,42,32.3,34.14,1018.1,1,0
2022-11-02 15:23:55,966,-97,-290,3,-2,-3,24,73,42,32.3,34.14,1018.1,1,0
2022-11-02 15:23:55,966,-97,-290,3,-2,-3,24,73,42,32.3,34.14,1018.1,1,0
2022-11-02 15:23:55,966,-97,-290,3,-2,-3,24,73,42,32.3,34.14,1018.1,1,0
2022-11-02 15:23:55,966,-97,-290,3,-2,-3,24,73,42,32.3,34.14,1018.1,1,0
2022-11-02 15:23:55,977,-122,-300,3,-2,-5,24,77,39,32.3,34.14,1018.1,1,0
2022-11-02 15:23:55,977,-122,-300,3,-2,-5,24,77,39,32.3,34.14,1018.1,1,0
2022-11-02 15:23:55,977,-122,-300,3,-2,-5,24,77,39,32.3,34.14,1018.1,1,0
2022-11-02 15:23:55,977,-122,-300,3,-2,-5,24,77,39,32.3,34.14,1018.1,1,0
2022-11-02 15:23:55,977,-122,-300,3,-2,-5,24,77,39,32.3,34.14,1018.1,1,0
2022-11-02 15:23:55,977,-122,-300,3,-2,-5,24,77,39,32.3,34.14,1018.1,1,0
2022-11-02 15:23:55,970,-109,-292,-1,-3,-5,23,76,37,32.3,34.14,1018.1,1,0
2022-11-02 15:23:55,970,-109,-292,-1,-3,-5,23,76,37,32.3,34.14,1018.1,1,0
2022-11-02 15:23:55,970,-109,-292,-1,-3,-5,23,76,37,32.3,34.14,1018.1,1,0
2022-11-02 15:23:55,970,-109,-292,-1,-3,-5,23,76,37,32.3,34.14,1018.1,1,0
2022-11-02 15:23:55,970,-109,-292,-1,-3,-5,23,76,37,32.3,34.14,1018.1,1,0
2022-11-02 15:23:55,970,-109,-292,-1,-3,-5,23,76,37,32.3,34.14,1018.1,1,0
2022-11-02 15:23:55,970,-81,-312,-7,-4,-5,24,78,39,32.3,34.14,1018.1,1,0
2022-11-02 15:23:55,970,-81,-312,-7,-4,-5,24,78,39,32.3,34.14,1018.1,1,0
2022-11-02 15:23:55,970,-81,-312,-7,-4,-5,24,78,39,32.3,34.14,1018.1,1,0
2022-11-02 15:23:55,970,-81,-312,-7,-4,-5,24,78,39,32.3,34.14,1018.1,1,0
2022-11-02 15:23:55,970,-81,-312,-7,-4,-5,24,78,39,32.3,34.14,1018.1,1,0
2022-11-02 15:23:55,970,-81,-312,-7,-4,-5,24,78,39,32.3,34.14,1018.1,1,0
2022-11-02 15:23:55,960,-35,-339,-10,-1,-2,23,78,41,32.3,34.14,1018.1,1,0
2022-11-02 15:23:55,960,-35,-339,-10,-1,-2,23,78,41,32.3,34.14,1018.1,1,0
2022-11-02 15:23:55,960,-35,-339,-10,-1,-2,23,78,41,32.3,34.14,1018.1,1,0
2022-11-02 15:23:55,960,-35,-339,-10,-1,-2,23,78,41,32.3,34.14,1018.1,1,0
2022-11-02 15:23:55,960,-35,-339,-10,-1,-2,23,78,41,32.3,34.14,1018.1,1,0
2022-11-02 15:23:55,960,-35,-339,-10,-1,-2,23,78,41,32.3,34.14,1018.1,1,0
2022-11-02 15:23:55,962,-64,-376,-6,5,-3,22,75,37,32.3,34.14,1018.1,1,0
2022-11-02 15:23:55,962,-64,-376,-6,5,-3,22,75,37,32.3,34.14,1018.1,1,0
2022-11-02 15:23:55,962,-64,-376,-6,5,-3,22,75,37,32.3,34.14,1018.1,1,0
2022-11-02 15:23:55,962,-64,-376,-6,5,-3,22,75,37,32.3,34.14,1018.1,1,0
2022-11-02 15:23:55,962,-64,-376,-6,5,-3,22,75,37,32.3,34.14,1018.1,1,0
2022-11-02 15:23:55,962,-64,-376,-6,5,-3,22,75,37,32.3,34.14,1018.1,1,0
2022-11-02 15:23:55,956,-54,-357,-4,11,-6,20,77,39,32.3,34.46,1018.17,1,0
2022-11-02 15:23:55,956,-54,-357,-4,11,-6,20,77,39,32.3,34.46,1018.17,1,0
2022-11-02 15:23:55,956,-54,-357,-4,11,-6,20,77,39,32.3,34.46,1018.17,1,0
2022-11-02 15:23:55,956,-54,-357,-4,11,-6,20,77,39,32.3,34.46,1018.17,1,0
2022-11-02 15:23:55,956,-54,-357,-4,11,-6,20,77,39,32.3,34.46,1018.17,1,0
2022-11-02 15:23:55,956,-54,-357,-4,11,-6,20,77,39,32.3,34.46,1018.17,1,0
2022-11-02 15:23:55,997,19,-249,0,7,-6,22,80,39,32.3,34.46,1018.17,1,0
2022-11-02 15:23:55,997,19,-249,0,7,-6,22,80,39,32.3,34.46,1018.17,1,0
2022-11-02 15:23:55,997,19,-249,0,7,-6,22,80,39,32.3,34.46,1018.17,1,0
2022-11-02 15:23:55,997,19,-249,0,7,-6,22,80,39,32.3,34.46,1018.17,1,0
2022-11-02 15:23:55,997,19,-249,0,7,-6,22,80,39,32.3,34.46,1018.17,1,0
2022-11-02 15:23:55,997,19,-249,0,7,-6,22,80,39,32.3,34.46,1018.17,1,0
2022-11-02 15:23:55,1003,35,-238,2,5,-5,19,82,41,32.3,34.46,1018.17,1,0
2022-11-02 15:23:55,1003,35,-238,2,5,-5,19,82,41,32.3,34.46,1018.17,1,0
2022-11-02 15:23:55,1003,35,-238,2,5,-5,19,82,41,32.3,34.46,1018.17,1,0
2022-11-02 15:23:55,1003,35,-238,2,5,-5,19,82,41,32.3,34.46,1018.17,1,0
2022-11-02 15:23:55,1003,35,-238,2,5,-5,19,82,41,32.3,34.46,1018.17,1,0
2022-11-02 15:23:55,1003,35,-238,2,5,-5,19,82,41,32.3,34.46,1018.17,1,0
2022-11-02 15:23:55,981,13,-284,6,1,-2,19,81,43,32.3,34.46,1018.17,1,0
2022-11-02 15:23:55,981,13,-284,6,1,-2,19,81,43,32.3,34.46,1018.17,1,0
2022-11-02 15:23:55,981,13,-284,6,1,-2,19,81,43,32.3,34.46,1018.17,1,0
2022-11-02 15:23:55,981,13,-284,6,1,-2,19,81,43,32.3,34.46,1018.17,1,0
2022-11-02 15:23:55,981,13,-284,6,1,-2,19,81,43,32.3,34.46,1018.17,1,0
2022-11-02 15:23:55,981,13,-284,6,1,-2,19,81,43,32.3,34.46,1018.17,1,0
2022-11-02 15:23:56,987,-27,-292,7,1,1,19,82,46,32.3,34.46,1018.17,1,0
2022-11-02 15:23:56,987,-27,-292,7,1,1,19,82,46,32.3,34.46,1018.17,1,0
2022-11-02 15:23:56,987,-27,-292,7,1,1,19,82,46,32.3,34.46,1018.17,1,0
2022-11-02 15:23:56,987,-27,-292,7,1,1,19,82,46,32.3,34.46,1018.17,1,0
2022-11-02 15:23:56,987,-27,-292,7,1,1,19,82,46,32.3,34.46,1018.17,1,0
2022-11-02 15:23:56,987,-27,-292,7,1,1,19,82,46,32.3,34.46,1018.17,1,0
2022-11-02 15:23:56,987,-13,-271,1,2,1,20,79,44,32.3,34.46,1018.17,1,0
2022-11-02 15:23:56,987,-13,-271,1,2,1,20,79,44,32.3,34.46,1018.17,1,0
2022-11-02 15:23:56,987,-13,-271,1,2,1,20,79,44,32.3,34.46,1018.17,1,0
2022-11-02 15:23:56,987,-13,-271,1,2,1,20,79,44,32.3,34.46,1018.17,1,0
2022-11-02 15:23:56,987,-13,-271,1,2,1,20,79,44,32.3,34.46,1018.17,1,0
2022-11-02 15:23:56,987,-13,-271,1,2,1,20,79,44,32.3,34.46,1018.17,1,0
2022-11-02 15:23:56,989,-23,-265,0,0,4,20,78,43,32.3,34.46,1018.17,1,0
2022-11-02 15:23:56,989,-23,-265,0,0,4,20,78,43,32.3,34.46,1018.17,1,0
2022-11-02 15:23:56,989,-23,-265,0,0,4,20,78,43,32.3,34.46,1018.17,1,0
2022-11-02 15:23:56,989,-23,-265,0,0,4,20,78,43,32.3,34.46,1018.17,1,0
2022-11-02 15:23:56,989,-23,-265,0,0,4,20,78,43,32.3,34.46,1018.17,1,0
2022-11-02 15:23:56,989,-23,-265,0,0,4,20,78,43,32.3,34.46,1018.17,1,0
2022-11-02 15:23:56,979,-42,-271,0,0,2,22,81,42,32.3,34.46,1018.17,1,0
2022-11-02 15:23:56,979,-42,-271,0,0,2,22,81,42,32.3,34.46,1018.17,1,0
2022-11-02 15:23:56,979,-42,-271,0,0,2,22,81,42,32.3,34.46,1018.17,1,0
2022-11-02 15:23:56,979,-42,-271,0,0,2,22,81,42,32.3,34.46,1018.17,1,0
2022-11-02 15:23:56,979,-42,-271,0,0,2,22,81,42,32.3,34.46,1018.17,1,0
2022-11-02 15:23:56,979,-42,-271,0,0,2,22,81,42,32.3,34.46,1018.17,1,0
2022-11-02 15:23:56,979,-44,-283,-1,-1,1,22,78,38,32.3,34.46,1018.17,1,0
2022-11-02 15:23:56,979,-44,-283,-1,-1,1,22,78,38,32.3,34.46,1018.17,1,0
2022-11-02 15:23:56,979,-44,-283,-1,-1,1,22,78,38,32.3,34.46,1018.17,1,0
2022-11-02 15:23:56,979,-44,-283,-1,-1,1,22,78,38,32.3,34.46,1018.17,1,0
2022-11-02 15:23:56,979,-44,-283,-1,-1,1,22,78,38,32.3,34.46,1018.17,1,0
2022-11-02 15:23:56,979,-44,-283,-1,-1,1,22,78,38,32.3,34.46,1018.17,1,0
2022-11-02 15:23:56,972,-40,-275,-2,0,0,19,80,34,32.3,34.46,1018.17,1,0
2022-11-02 15:23:56,972,-40,-275,-2,0,0,19,80,34,32.3,34.46,1018.17,1,0
2022-11-02 15:23:56,972,-40,-275,-2,0,0,19,80,34,32.3,34.46,1018.17,1,0
2022-11-02 15:23:56,972,-40,-275,-2,0,0,19,80,34,32.3,34.46,1018.17,1,0
2022-11-02 15:23:56,972,-40,-275,-2,0,0,19,80,34,32.3,34.46,1018.17,1,0
2022-11-02 15:23:56,972,-40,-275,-2,0,0,19,80,34,32.3,34.46,1018.17,1,0
2022-11-02 15:23:56,974,-40,-273,0,-1,-2,22,79,41,32.3,34.5,1018.1,1,0
2022-11-02 15:23:56,974,-40,-273,0,-1,-2,22,79,41,32.3,34.5,1018.1,1,0
2022-11-02 15:23:56,974,-40,-273,0,-1,-2,22,79,41,32.3,34.5,1018.1,1,0
2022-11-02 15:23:56,974,-40,-273,0,-1,-2,22,79,41,32.3,34.5,1018.1,1,0
2022-11-02 15:23:56,974,-40,-273,0,-1,-2,22,79,41,32.3,34.5,1018.1,1,0
2022-11-02 15:23:56,974,-40,-273,0,-1,-2,22,79,41,32.3,34.5,1018.1,1,0
2022-11-02 15:23:56,979,-13,-302,3,1,-3,21,79,39,32.3,34.5,1018.1,1,0
2022-11-02 15:23:56,979,-13,-302,3,1,-3,21,79,39,32.3,34.5,1018.1,1,0
2022-11-02 15:23:56,979,-13,-302,3,1,-3,21,79,39,32.3,34.5,1018.1,1,0
2022-11-02 15:23:56,979,-13,-302,3,1,-3,21,79,39,32.3,34.5,1018.1,1,0
2022-11-02 15:23:56,979,-13,-302,3,1,-3,21,79,39,32.3,34.5,1018.1,1,0
2022-11-02 15:23:56,979,-13,-302,3,1,-3,21,79,39,32.3,34.5,1018.1,1,0
2022-11-02 15:23:56,981,-3,-275,2,1,-3,21,79,38,32.3,34.5,1018.1,1,0
2022-11-02 15:23:56,981,-3,-275,2,1,-3,21,79,38,32.3,34.5,1018.1,1,0
2022-11-02 15:23:56,981,-3,-275,2,1,-3,21,79,38,32.3,34.5,1018.1,1,0
2022-11-02 15:23:56,981,-3,-275,2,1,-3,21,79,38,32.3,34.5,1018.1,1,0
2022-11-02 15:23:56,981,-3,-275,2,1,-3,21,79,38,32.3,34.5,1018.1,1,0
2022-11-02 15:23:56,981,-3,-275,2,1,-3,21,79,38,32.3,34.5,1018.1,1,0
2022-11-02 15:23:56,981,-21,-275,0,2,-2,18,80,40,32.3,34.5,1018.1,1,0
2022-11-02 15:23:56,981,-21,-275,0,2,-2,18,80,40,32.3,34.5,1018.1,1,0
2022-11-02 15:23:56,981,-21,-275,0,2,-2,18,80,40,32.3,34.5,1018.1,1,0
2022-11-02 15:23:56,981,-21,-275,0,2,-2,18,80,40,32.3,34.5,1018.1,1,0
2022-11-02 15:23:56,981,-21,-275,0,2,-2,18,80,40,32.3,34.5,1018.1,1,0
2022-11-02 15:23:56,981,-21,-275,0,2,-2,18,80,40,32.3,34.5,1018.1,1,0
2022-11-02 15:23:57,983,-9,-275,-1,3,-3,19,79,42,32.3,34.5,1018.1,1,0
2022-11-02 15:23:57,983,-9,-275,-1,3,-3,19,79,42,32.3,34.5,1018.1,1,0
2022-11-02 15:23:57,983,-9,-275,-1,3,-3,19,79,42,32.3,34.5,1018.1,1,0
2022-11-02 15:23:57,983,-9,-275,-1,3,-3,19,79,42,32.3,34.5,1018.1,1,0
2022-11-02 15:23:57,983,-9,-275,-1,3,-3,19,79,42,32.3,34.5,1018.1,1,0
2022-11-02 15:23:57,983,-9,-275,-1,3,-3,19,79,42,32.3,34.5,1018.1,1,0
2022-11-02 15:23:57,989,11,-253,2,2,-2,20,80,43,32.3,34.5,1018.1,1,0
2022-11-02 15:23:57,989,11,-253,2,2,-2,20,80,43,32.3,34.5,1018.1,1,0
2022-11-02 15:23:57,989,11,-253,2,2,-2,20,80,43,32.3,34.5,1018.1,1,0
2022-11-02 15:23:57,989,11,-253,2,2,-2,20,80,43,32.3,34.5,1018.1,1,0
2022-11-02 15:23:57,989,11,-253,2,2,-2,20,80,43,32.3,34.5,1018.1,1,0
2022-11-02 15:23:57,989,11,-253,2,2,-2,20,80,43,32.3,34.5,1018.1,1,0
2022-11-02 15:23:57,993,23,-253,0,1,0,18,79,41,32.3,34.5,1018.1,1,0
2022-11-02 15:23:57,993,23,-253,0,1,0,18,79,41,32.3,34.5,1018.1,1,0
2022-11-02 15:23:57,993,23,-253,0,1,0,18,79,41,32.3,34.5,1018.1,1,0
2022-11-02 15:23:57,993,23,-253,0,1,0,18,79,41,32.3,34.5,1018.1,1,0
2022-11-02 15:23:57,993,23,-253,0,1,0,18,79,41,32.3,34.5,1018.1,1,0
2022-11-02 15:23:57,993,23,-253,0,1,0,18,79,41,32.3,34.5,1018.1,1,0
2022-11-02 15:23:57,995,3,-247,1,-1,4,16,80,40,32.3,34.5,1018.1,1,0
2022-11-02 15:23:57,995,3,-247,1,-1,4,16,80,40,32.3,34.5,1018.1,1,0
2022-11-02 15:23:57,995,3,-247,1,-1,4,16,80,40,32.3,34.5,1018.1,1,0
2022-11-02 15:23:57,995,3,-247,1,-1,4,16,80,40,32.3,34.5,1018.1,1,0
2022-11-02 15:23:57,995,3,-247,1,-1,4,16,80,40,32.3,34.5,1018.1,1,0
2022-11-02 15:23:57,995,3,-247,1,-1,4,16,80,40,32.3,34.5,1018.1,1,0
2022-11-02 15:23:57,989,-27,-269,1,0,5,20,78,40,32.3,34.5,1018.1,1,0
2022-11-02 15:23:57,989,-27,-269,1,0,5,20,78,40,32.3,34.5,1018.1,1,0
2022-11-02 15:23:57,989,-27,-269,1,0,5,20,78,40,32.3,34.5,1018.1,1,0
2022-11-02 15:23:57,989,-27,-269,1,0,5,20,78,40,32.3,34.5,1018.1,1,0
2022-11-02 15:23:57,989,-27,-269,1,0,5,20,78,40,32.3,34.5,1018.1,1,0
2022-11-02 15:23:57,989,-27,-269,1,0,5,20,78,40,32.3,34.5,1018.1,1,0
2022-11-02 15:23:57,987,-33,-261,3,1,6,24,79,38,32.3,34.5,1018.1,1,0
2022-11-02 15:23:57,987,-33,-261,3,1,6,24,79,38,32.3,34.5,1018.1,1,0
2022-11-02 15:23:57,987,-33,-261,3,1,6,24,79,38,32.3,34.5,1018.1,1,0
2022-11-02 15:23:57,987,-33,-261,3,1,6,24,79,38,32.3,34.5,1018.1,1,0
2022-11-02 15:23:57,987,-33,-261,3,1,6,24,79,38,32.3,34.5,1018.1,1,0
2022-11-02 15:23:57,987,-33,-261,3,1,6,24,79,38,32.3,34.5,1018.1,1,0
2022-11-02 15:23:57,995,-40,-259,0,0,6,20,76,36,32.3,34.51,1018.17,1,0
2022-11-02 15:23:57,995,-40,-259,0,0,6,20,76,36,32.3,34.51,1018.17,1,0
2022-11-02 15:23:57,995,-40,-259,0,0,6,20,76,36,32.3,34.51,1018.17,1,0
2022-11-02 15:23:57,995,-40,-259,0,0,6,20,76,36,32.3,34.51,1018.17,1,0
2022-11-02 15:23:57,995,-40,-259,0,0,6,20,76,36,32.3,34.51,1018.17,1,0
2022-11-02 15:23:57,995,-40,-259,0,0,6,20,76,36,32.3,34.51,1018.17,1,0
2022-11-02 15:23:57,981,-70,-257,0,0,5,21,77,42,32.3,34.51,1018.17,1,0
2022-11-02 15:23:57,981,-70,-257,0,0,5,21,77,42,32.3,34.51,1018.17,1,0
2022-11-02 15:23:57,981,-70,-257,0,0,5,21,77,42,32.3,34.51,1018.17,1,0
2022-11-02 15:23:57,981,-70,-257,0,0,5,21,77,42,32.3,34.51,1018.17,1,0
2022-11-02 15:23:57,981,-70,-257,0,0,5,21,77,42,32.3,34.51,1018.17,1,0
2022-11-02 15:23:57,981,-70,-257,0,0,5,21,77,42,32.3,34.51,1018.17,1,0
2022-11-02 15:23:57,991,-72,-257,-1,0,4,19,79,42,32.3,34.51,1018.17,1,0
2022-11-02 15:23:57,991,-72,-257,-1,0,4,19,79,42,32.3,34.51,1018.17,1,0
2022-11-02 15:23:57,991,-72,-257,-1,0,4,19,79,42,32.3,34.51,1018.17,1,0
2022-11-02 15:23:57,991,-72,-257,-1,0,4,19,79,42,32.3,34.51,1018.17,1,0
2022-11-02 15:23:57,991,-72,-257,-1,0,4,19,79,42,32.3,34.51,1018.17,1,0
2022-11-02 15:23:57,991,-72,-257,-1,0,4,19,79,42,32.3,34.51,1018.17,1,0
2022-11-02 15:23:57,981,-85,-247,1,1,2,22,78,40,32.3,34.51,1018.17,1,0
2022-11-02 15:23:57,981,-85,-247,1,1,2,22,78,40,32.3,34.51,1018.17,1,0
2022-11-02 15:23:57,981,-85,-247,1,1,2,22,78,40,32.3,34.51,1018.17,1,0
2022-11-02 15:23:57,981,-85,-247,1,1,2,22,78,40,32.3,34.51,1018.17,1,0
2022-11-02 15:23:57,981,-85,-247,1,1,2,22,78,40,32.3,34.51,1018.17,1,0
2022-11-02 15:23:57,981,-85,-247,1,1,2,22,78,40,32.3,34.51,1018.17,1,0
2022-11-02 15:23:58,981,-87,-245,0,0,0,23,73,39,32.3,34.51,1018.17,1,0
2022-11-02 15:23:58,981,-87,-245,0,0,0,23,73,39,32.3,34.51,1018.17,1,0
2022-11-02 15:23:58,981,-87,-245,0,0,0,23,73,39,32.3,34.51,1018.17,1,0
2022-11-02 15:23:58,981,-87,-245,0,0,0,23,73,39,32.3,34.51,1018.17,1,0
2022-11-02 15:23:58,981,-87,-245,0,0,0,23,73,39,32.3,34.51,1018.17,1,0
2022-11-02 15:23:58,981,-87,-245,0,0,0,23,73,39,32.3,34.51,1018.17,1,0
2022-11-02 15:23:58,993,-72,-253,-3,0,0,24,78,37,32.3,34.51,1018.17,1,0
2022-11-02 15:23:58,993,-72,-253,-3,0,0,24,78,37,32.3,34.51,1018.17,1,0
2022-11-02 15:23:58,993,-72,-253,-3,0,0,24,78,37,32.3,34.51,1018.17,1,0
2022-11-02 15:23:58,993,-72,-253,-3,0,0,24,78,37,32.3,34.51,1018.17,1,0
2022-11-02 15:23:58,993,-72,-253,-3,0,0,24,78,37,32.3,34.51,1018.17,1,0
2022-11-02 15:23:58,993,-72,-253,-3,0,0,24,78,37,32.3,34.51,1018.17,1,0
2022-11-02 15:23:58,983,-56,-251,-1,-1,0,25,77,36,32.3,34.51,1018.17,1,0
2022-11-02 15:23:58,983,-56,-251,-1,-1,0,25,77,36,32.3,34.51,1018.17,1,0
2022-11-02 15:23:58,983,-56,-251,-1,-1,0,25,77,36,32.3,34.51,1018.17,1,0
2022-11-02 15:23:58,983,-56,-251,-1,-1,0,25,77,36,32.3,34.51,1018.17,1,0
2022-11-02 15:23:58,983,-56,-251,-1,-1,0,25,77,36,32.3,34.51,1018.17,1,0
2022-11-02 15:23:58,983,-56,-251,-1,-1,0,25,77,36,32.3,34.51,1018.17,1,0
2022-11-02 15:23:58,985,-80,-259,0,0,0,24,77,39,32.3,34.51,1018.17,1,0
2022-11-02 15:23:58,985,-80,-259,0,0,0,24,77,39,32.3,34.51,1018.17,1,0
2022-11-02 15:23:58,985,-80,-259,0,0,0,24,77,39,32.3,34.51,1018.17,1,0
2022-11-02 15:23:58,985,-80,-259,0,0,0,24,77,39,32.3,34.51,1018.17,1,0
2022-11-02 15:23:58,985,-80,-259,0,0,0,24,77,39,32.3,34.51,1018.17,1,0
2022-11-02 15:23:58,985,-80,-259,0,0,0,24,77,39,32.3,34.51,1018.17,1,0
2022-11-02 15:23:58,993,-74,-251,0,1,0,24,77,41,32.3,34.51,1018.17,1,0
2022-11-02 15:23:58,993,-74,-251,0,1,0,24,77,41,32.3,34.51,1018.17,1,0
2022-11-02 15:23:58,993,-74,-251,0,1,0,24,77,41,32.3,34.51,1018.17,1,0
2022-11-02 15:23:58,993,-74,-251,0,1,0,24,77,41,32.3,34.51,1018.17,1,0
2022-11-02 15:23:58,993,-74,-251,0,1,0,24,77,41,32.3,34.51,1018.17,1,0
2022-11-02 15:23:58,993,-74,-251,0,1,0,24,77,41,32.3,34.51,1018.17,1,0
2022-11-02 15:23:58,987,-74,-247,0,0,-1,25,79,41,32.3,34.51,1018.17,1,0
2022-11-02 15:23:58,987,-74,-247,0,0,-1,25,79,41,32.3,34.51,1018.17,1,0
2022-11-02 15:23:58,987,-74,-247,0,0,-1,25,79,41,32.3,34.51,1018.17,1,0
2022-11-02 15:23:58,987,-74,-247,0,0,-1,25,79,41,32.3,34.51,1018.17,1,0
2022-11-02 15:23:58,987,-74,-247,0,0,-1,25,79,41,32.3,34.51,1018.17,1,0
2022-11-02 15:23:58,987,-74,-247,0,0,-1,25,79,41,32.3,34.51,1018.17,1,0
2022-11-02 15:23:58,985,-85,-245,2,0,-5,22,75,41,32.4,34.51,1018.17,1,0
2022-11-02 15:23:58,985,-85,-245,2,0,-5,22,75,41,32.4,34.51,1018.17,1,0
2022-11-02 15:23:58,985,-85,-245,2,0,-5,22,75,41,32.4,34.51,1018.17,1,0
2022-11-02 15:23:58,985,-85,-245,2,0,-5,22,75,41,32.4,34.51,1018.17,1,0
2022-11-02 15:23:58,985,-85,-245,2,0,-5,22,75,41,32.4,34.51,1018.17,1,0
2022-11-02 15:23:58,985,-85,-245,2,0,-5,22,75,41,32.4,34.51,1018.17,1,0
2022-11-02 15:23:58,974,-76,-273,1,-1,-8,24,76,36,32.4,34.51,1018.17,1,0
2022-11-02 15:23:58,974,-76,-273,1,-1,-8,24,76,36,32.4,34.51,1018.17,1,0
2022-11-02 15:23:58,974,-76,-273,1,-1,-8,24,76,36,32.4,34.51,1018.17,1,0
2022-11-02 15:23:58,974,-76,-273,1,-1,-8,24,76,36,32.4,34.51,1018.17,1,0
2022-11-02 15:23:58,974,-76,-273,1,-1,-8,24,76,36,32.4,34.51,1018.17,1,0
2022-11-02 15:23:58,974,-76,-273,1,-1,-8,24,76,36,32.4,34.51,1018.17,1,0
2022-11-02 15:23:58,981,-54,-249,-1,-2,-10,22,77,40,32.4,34.51,1018.17,1,0
2022-11-02 15:23:58,981,-54,-249,-1,-2,-10,22,77,40,32.4,34.51,1018.17,1,0
2022-11-02 15:23:58,981,-54,-249,-1,-2,-10,22,77,40,32.4,34.51,1018.17,1,0
2022-11-02 15:23:58,981,-54,-249,-1,-2,-10,22,77,40,32.4,34.51,1018.17,1,0
2022-11-02 15:23:58,981,-54,-249,-1,-2,-10,22,77,40,32.4,34.51,1018.17,1,0
2022-11-02 15:23:58,981,-54,-249,-1,-2,-10,22,77,40,32.4,34.51,1018.17,1,0
2022-11-02 15:23:58,983,-13,-281,-3,-5,-15,19,79,38,32.4,34.51,1018.17,1,0
2022-11-02 15:23:58,983,-13,-281,-3,-5,-15,19,79,38,32.4,34.51,1018.17,1,0
2022-11-02 15:23:58,983,-13,-281,-3,-5,-15,19,79,38,32.4,34.51,1018.17,1,0
2022-11-02 15:23:58,983,-13,-281,-3,-5,-15,19,79,38,32.4,34.51,1018.17,1,0
2022-11-02 15:23:58,983,-13,-281,-3,-5,-15,19,79,38,32.4,34.51,1018.17,1,0
2022-11-02 15:23:58,983,-13,-281,-3,-5,-15,19,79,38,32.4,34.51,1018.17,1,0
2022-11-02 15:23:59,997,3,-275,-3,-5,-20,17,79,39,32.4,34.51,1018.17,1,0
2022-11-02 15:23:59,997,3,-275,-3,-5,-20,17,79,39,32.4,34.51,1018.17,1,0
2022-11-02 15:23:59,997,3,-275,-3,-5,-20,17,79,39,32.4,34.51,1018.17,1,0
2022-11-02 15:23:59,997,3,-275,-3,-5,-20,17,79,39,32.4,34.51,1018.17,1,0
2022-11-02 15:23:59,997,3,-275,-3,-5,-20,17,79,39,32.4,34.51,1018.17,1,0
2022-11-02 15:23:59,997,3,-275,-3,-5,-20,17,79,39,32.4,34.51,1018.17,1,0
2022-11-02 15:23:59,977,60,-279,-5,-9,-23,17,81,36,32.4,34.51,1018.17,1,0
2022-11-02 15:23:59,977,60,-279,-5,-9,-23,17,81,36,32.4,34.51,1018.17,1,0
2022-11-02 15:23:59,977,60,-279,-5,-9,-23,17,81,36,32.4,34.51,1018.17,1,0
2022-11-02 15:23:59,977,60,-279,-5,-9,-23,17,81,36,32.4,34.51,1018.17,1,0
2022-11-02 15:23:59,977,60,-279,-5,-9,-23,17,81,36,32.4,34.51,1018.17,1,0
2022-11-02 15:23:59,977,60,-279,-5,-9,-23,17,81,36,32.4,34.51,1018.17,1,0
2022-11-02 15:23:59,966,117,-310,2,-9,-27,12,80,39,32.4,34.51,1018.17,1,0
2022-11-02 15:23:59,966,117,-310,2,-9,-27,12,80,39,32.4,34.51,1018.17,1,0
2022-11-02 15:23:59,966,117,-310,2,-9,-27,12,80,39,32.4,34.51,1018.17,1,0
2022-11-02 15:23:59,966,117,-310,2,-9,-27,12,80,39,32.4,34.51,1018.17,1,0
2022-11-02 15:23:59,966,117,-310,2,-9,-27,12,80,39,32.4,34.51,1018.17,1,0
2022-11-02 15:23:59,966,117,-310,2,-9,-27,12,80,39,32.4,34.51,1018.17,1,0
2022-11-02 15:23:59,948,189,-329,0,-9,-27,10,81,39,32.4,34.51,1018.17,1,0
2022-11-02 15:23:59,948,189,-329,0,-9,-27,10,81,39,32.4,34.51,1018.17,1,0
2022-11-02 15:23:59,948,189,-329,0,-9,-27,10,81,39,32.4,34.51,1018.17,1,0
2022-11-02 15:23:59,948,189,-329,0,-9,-27,10,81,39,32.4,34.51,1018.17,1,0
2022-11-02 15:23:59,948,189,-329,0,-9,-27,10,81,39,32.4,34.51,1018.17,1,0
2022-11-02 15:23:59,948,189,-329,0,-9,-27,10,81,39,32.4,34.51,1018.17,1,0
2022-11-02 15:23:59,933,218,-341,0,-10,-21,7,83,41,32.4,34.51,1018.17,1,0
2022-11-02 15:23:59,933,218,-341,0,-10,-21,7,83,41,32.4,34.51,1018.17,1,0
2022-11-02 15:23:59,933,218,-341,0,-10,-21,7,83,41,32.4,34.51,1018.17,1,0
2022-11-02 15:23:59,933,218,-341,0,-10,-21,7,83,41,32.4,34.51,1018.17,1,0
2022-11-02 15:23:59,933,218,-341,0,-10,-21,7,83,41,32.4,34.51,1018.17,1,0
2022-11-02 15:23:59,933,218,-341,0,-10,-21,7,83,41,32.4,34.51,1018.17,1,0
2022-11-02 15:23:59,921,302,-417,-2,-12,-16,3,85,34,32.4,34.51,1018.17,1,0
2022-11-02 15:23:59,921,302,-417,-2,-12,-16,3,85,34,32.4,34.51,1018.17,1,0
2022-11-02 15:23:59,921,302,-417,-2,-12,-16,3,85,34,32.4,34.51,1018.17,1,0
2022-11-02 15:23:59,921,302,-417,-2,-12,-16,3,85,34,32.4,34.51,1018.17,1,0
2022-11-02 15:23:59,921,302,-417,-2,-12,-16,3,85,34,32.4,34.51,1018.17,1,0
2022-11-02 15:23:59,921,302,-417,-2,-12,-16,3,85,34,32.4,34.51,1018.17,1,0
2022-11-02 15:23:59,897,292,-441,-4,-6,-12,0,85,32,32.3,34.51,1018.19,1,0
2022-11-02 15:23:59,897,292,-441,-4,-6,-12,0,85,32,32.3,34.51,1018.19,1,0
2022-11-02 15:23:59,897,292,-441,-4,-6,-12,0,85,32,32.3,34.51,1018.19,1,0
2022-11-02 15:23:59,897,292,-441,-4,-6,-12,0,85,32,32.3,34.51,1018.19,1,0
2022-11-02 15:23:59,897,292,-441,-4,-6,-12,0,85,32,32.3,34.51,1018.19,1,0
2022-11-02 15:23:59,897,292,-441,-4,-6,-12,0,85,32,32.3,34.51,1018.19,1,0
2022-11-02 15:23:59,921,290,-406,-3,-8,-12,-2,87,36,32.3,34.51,1018.19,1,0
2022-11-02 15:23:59,921,290,-406,-3,-8,-12,-2,87,36,32.3,34.51,1018.19,1,0
2022-11-02 15:23:59,921,290,-406,-3,-8,-12,-2,87,36,32.3,34.51,1018.19,1,0
2022-11-02 15:23:59,921,290,-406,-3,-8,-12,-2,87,36,32.3,34.51,1018.19,1,0
2022-11-02 15:23:59,921,290,-406,-3,-8,-12,-2,87,36,32.3,34.51,1018.19,1,0
2022-11-02 15:23:59,921,290,-406,-3,-8,-12,-2,87,36,32.3,34.51,1018.19,1,0
2022-11-02 15:23:59,882,283,-402,-5,-7,-12,-1,86,41,32.3,34.51,1018.19,1,0
2022-11-02 15:23:59,882,283,-402,-5,-7,-12,-1,86,41,32.3,34.51,1018.19,1,0
2022-11-02 15:23:59,882,283,-402,-5,-7,-12,-1,86,41,32.3,34.51,1018.19,1,0
2022-11-02 15:23:59,882,283,-402,-5,-7,-12,-1,86,41,32.3,34.51,1018.19,1,0
2022-11-02 15:23:59,882,283,-402,-5,-7,-12,-1,86,41,32.3,34.51,1018.19,1,0
2022-11-02 15:23:59,882,283,-402,-5,-7,-12,-1,86,41,32.3,34.51,1018.19,1,0
2022-11-02 15:23:59,876,357,-425,-7,1,-8,-5,86,36,32.3,34.51,1018.19,1,0
2022-11-02 15:23:59,876,357,-425,-7,1,-8,-5,86,36,32.3,34.51,1018.19,1,0
2022-11-02 15:23:59,876,357,-425,-7,1,-8,-5,86,36,32.3,34.51,1018.19,1,0
2022-11-02 15:23:59,876,357,-425,-7,1,-8,-5,86,36,32.3,34.51,1018.19,1,0
2022-11-02 15:23:59,876,357,-425,-7,1,-8,-5,86,36,32.3,34.51,1018.19,1,0
2022-11-02 15:23:59,876,357,-425,-7,1,-8,-5,86,36,32.3,34.51,1018.19,1,0
2022-11-02 15:24:00,921,384,-390,-4,3,-3,-3,84,35,32.3,34.51,1018.19,1,0
2022-11-02 15:24:00,921,384,-390,-4,3,-3,-3,84,35,32.3,34.51,1018.19,1,0
2022-11-02 15:24:00,921,384,-390,-4,3,-3,-3,84,35,32.3,34.51,1018.19,1,0
2022-11-02 15:24:00,921,384,-390,-4,3,-3,-3,84,35,32.3,34.51,1018.19,1,0
2022-11-02 15:24:00,921,384,-390,-4,3,-3,-3,84,35,32.3,34.51,1018.19,1,0
2022-11-02 15:24:00,921,384,-390,-4,3,-3,-3,84,35,32.3,34.51,1018.19,1,0
2022-11-02 15:24:00,866,337,-429,1,1,-6,-8,87,37,32.3,34.51,1018.19,1,0
2022-11-02 15:24:00,866,337,-429,1,1,-6,-8,87,37,32.3,34.51,1018.19,1,0
2022-11-02 15:24:00,866,337,-429,1,1,-6,-8,87,37,32.3,34.51,1018.19,1,0
2022-11-02 15:24:00,866,337,-429,1,1,-6,-8,87,37,32.3,34.51,1018.19,1,0
2022-11-02 15:24:00,866,337,-429,1,1,-6,-8,87,37,32.3,34.51,1018.19,1,0
2022-11-02 15:24:00,866,337,-429,1,1,-6,-8,87,37,32.3,34.51,1018.19,1,0
2022-11-02 15:24:00,890,365,-413,-1,-3,-1,-10,88,39,32.3,34.51,1018.19,1,0
2022-11-02 15:24:00,890,365,-413,-1,-3,-1,-10,88,39,32.3,34.51,1018.19,1,0
2022-11-02 15:24:00,890,365,-413,-1,-3,-1,-10,88,39,32.3,34.51,1018.19,1,0
2022-11-02 15:24:00,890,365,-413,-1,-3,-1,-10,88,39,32.3,34.51,1018.19,1,0
2022-11-02 15:24:00,890,365,-413,-1,-3,-1,-10,88,39,32.3,34.51,1018.19,1,0
2022-11-02 15:24:00,890,365,-413,-1,-3,-1,-10,88,39,32.3,34.51,1018.19,1,0
2022-11-02 15:24:00,870,370,-411,0,-2,0,-11,88,37,32.3,34.51,1018.19,1,0
2022-11-02 15:24:00,870,370,-411,0,-2,0,-11,88,37,32.3,34.51,1018.19,1,0
2022-11-02 15:24:00,870,370,-411,0,-2,0,-11,88,37,32.3,34.51,1018.19,1,0
2022-11-02 15:24:00,870,370,-411,0,-2,0,-11,88,37,32.3,34.51,1018.19,1,0
2022-11-02 15:24:00,870,370,-411,0,-2,0,-11,88,37,32.3,34.51,1018.19,1,0
2022-11-02 15:24:00,870,370,-411,0,-2,0,-11,88,37,32.3,34.51,1018.19,1,0
2022-11-02 15:24:00,872,337,-425,3,-1,0,-10,85,38,32.3,34.51,1018.19,1,0
2022-11-02 15:24:00,872,337,-425,3,-1,0,-10,85,38,32.3,34.51,1018.19,1,0
2022-11-02 15:24:00,872,337,-425,3,-1,0,-10,85,38,32.3,34.51,1018.19,1,0
2022-11-02 15:24:00,872,337,-425,3,-1,0,-10,85,38,32.3,34.51,1018.19,1,0
2022-11-02 15:24:00,872,337,-425,3,-1,0,-10,85,38,32.3,34.51,1018.19,1,0
2022-11-02 15:24:00,872,337,-425,3,-1,0,-10,85,38,32.3,34.51,1018.19,1,0
2022-11-02 15:24:00,882,347,-413,0,-2,0,-8,89,39,32.3,34.51,1018.19,1,0
2022-11-02 15:24:00,882,347,-413,0,-2,0,-8,89,39,32.3,34.51,1018.19,1,0
2022-11-02 15:24:00,882,347,-413,0,-2,0,-8,89,39,32.3,34.51,1018.19,1,0
2022-11-02 15:24:00,882,347,-413,0,-2,0,-8,89,39,32.3,34.51,1018.19,1,0
2022-11-02 15:24:00,882,347,-413,0,-2,0,-8,89,39,32.3,34.51,1018.19,1,0
2022-11-02 15:24:00,882,347,-413,0,-2,0,-8,89,39,32.3,34.51,1018.19,1,0
2022-11-02 15:24:00,870,349,-441,0,0,0,-10,87,41,32.4,34.5,1018.16,1,0
2022-11-02 15:24:00,870,349,-441,0,0,0,-10,87,41,32.4,34.5,1018.16,1,0
2022-11-02 15:24:00,870,349,-441,0,0,0,-10,87,41,32.4,34.5,1018.16,1,0
2022-11-02 15:24:00,870,349,-441,0,0,0,-10,87,41,32.4,34.5,1018.16,1,0
2022-11-02 15:24:00,870,349,-441,0,0,0,-10,87,41,32.4,34.5,1018.16,1,0
2022-11-02 15:24:00,870,349,-441,0,0,0,-10,87,41,32.4,34.5,1018.16,1,0
2022-11-02 15:24:00,880,329,-427,0,2,-1,-8,89,39,32.4,34.5,1018.16,1,0
2022-11-02 15:24:00,880,329,-427,0,2,-1,-8,89,39,32.4,34.5,1018.16,1,0
2022-11-02 15:24:00,880,329,-427,0,2,-1,-8,89,39,32.4,34.5,1018.16,1,0
2022-11-02 15:24:00,880,329,-427,0,2,-1,-8,89,39,32.4,34.5,1018.16,1,0
2022-11-02 15:24:00,880,329,-427,0,2,-1,-8,89,39,32.4,34.5,1018.16,1,0
2022-11-02 15:24:00,880,329,-427,0,2,-1,-8,89,39,32.4,34.5,1018.16,1,0
2022-11-02 15:24:00,892,380,-423,2,0,0,-9,80,32,32.4,34.5,1018.16,1,0
2022-11-02 15:24:00,892,380,-423,2,0,0,-9,80,32,32.4,34.5,1018.16,1,0
2022-11-02 15:24:00,892,380,-423,2,0,0,-9,80,32,32.4,34.5,1018.16,1,0
2022-11-02 15:24:00,892,380,-423,2,0,0,-9,80,32,32.4,34.5,1018.16,1,0
2022-11-02 15:24:00,892,380,-423,2,0,0,-9,80,32,32.4,34.5,1018.16,1,0
2022-11-02 15:24:00,892,380,-423,2,0,0,-9,80,32,32.4,34.5,1018.16,1,0
2022-11-02 15:24:00,940,427,-439,4,1,-4,-10,87,35,32.4,34.5,1018.16,1,0
2022-11-02 15:24:00,940,427,-439,4,1,-4,-10,87,35,32.4,34.5,1018.16,1,0
2022-11-02 15:24:00,940,427,-439,4,1,-4,-10,87,35,32.4,34.5,1018.16,1,0
2022-11-02 15:24:00,940,427,-439,4,1,-4,-10,87,35,32.4,34.5,1018.16,1,0
2022-11-02 15:24:00,940,427,-439,4,1,-4,-10,87,35,32.4,34.5,1018.16,1,0
2022-11-02 15:24:00,940,427,-439,4,1,-4,-10,87,35,32.4,34.5,1018.16,1,0
2022-11-02 15:24:01,897,347,-460,0,-1,0,-11,86,41,32.4,34.5,1018.16,1,0
2022-11-02 15:24:01,897,347,-460,0,-1,0,-11,86,41,32.4,34.5,1018.16,1,0
2022-11-02 15:24:01,897,347,-460,0,-1,0,-11,86,41,32.4,34.5,1018.16,1,0
2022-11-02 15:24:01,897,347,-460,0,-1,0,-11,86,41,32.4,34.5,1018.16,1,0
2022-11-02 15:24:01,897,347,-460,0,-1,0,-11,86,41,32.4,34.5,1018.16,1,0
2022-11-02 15:24:01,897,347,-460,0,-1,0,-11,86,41,32.4,34.5,1018.16,1,0
2022-11-02 15:24:01,845,351,-450,3,-1,-3,-11,87,36,32.4,34.5,1018.16,1,0
2022-11-02 15:24:01,845,351,-450,3,-1,-3,-11,87,36,32.4,34.5,1018.16,1,0
2022-11-02 15:24:01,845,351,-450,3,-1,-3,-11,87,36,32.4,34.5,1018.16,1,0
2022-11-02 15:24:01,845,351,-450,3,-1,-3,-11,87,36,32.4,34.5,1018.16,1,0
2022-11-02 15:24:01,845,351,-450,3,-1,-3,-11,87,36,32.4,34.5,1018.16,1,0
2022-11-02 15:24:01,845,351,-450,3,-1,-3,-11,87,36,32.4,34.5,1018.16,1,0
2022-11-02 15:24:01,866,349,-456,-5,2,1,-10,86,35,32.4,34.5,1018.16,1,0
2022-11-02 15:24:01,866,349,-456,-5,2,1,-10,86,35,32.4,34.5,1018.16,1,0
2022-11-02 15:24:01,866,349,-456,-5,2,1,-10,86,35,32.4,34.5,1018.16,1,0
2022-11-02 15:24:01,866,349,-456,-5,2,1,-10,86,35,32.4,34.5,1018.16,1,0
2022-11-02 15:24:01,866,349,-456,-5,2,1,-10,86,35,32.4,34.5,1018.16,1,0
2022-11-02 15:24:01,866,349,-456,-5,2,1,-10,86,35,32.4,34.5,1018.16,1,0
2022-11-02 15:24:01,862,378,-427,-2,-1,0,-11,86,37,32.4,34.5,1018.16,1,0
2022-11-02 15:24:01,862,378,-427,-2,-1,0,-11,86,37,32.4,34.5,1018.16,1,0
2022-11-02 15:24:01,862,378,-427,-2,-1,0,-11,86,37,32.4,34.5,1018.16,1,0
2022-11-02 15:24:01,862,378,-427,-2,-1,0,-11,86,37,32.4,34.5,1018.16,1,0
2022-11-02 15:24:01,862,378,-427,-2,-1,0,-11,86,37,32.4,34.5,1018.16,1,0
2022-11-02 15:24:01,862,378,-427,-2,-1,0,-11,86,37,32.4,34.5,1018.16,1,0
2022-11-02 15:24:01,874,384,-431,-2,0,-2,-11,88,34,32.4,34.5,1018.16,1,0
2022-11-02 15:24:01,874,384,-431,-2,0,-2,-11,88,34,32.4,34.5,1018.16,1,0
2022-11-02 15:24:01,874,384,-431,-2,0,-2,-11,88,34,32.4,34.5,1018.16,1,0
2022-11-02 15:24:01,874,384,-431,-2,0,-2,-11,88,34,32.4,34.5,1018.16,1,0
2022-11-02 15:24:01,874,384,-431,-2,0,-2,-11,88,34,32.4,34.5,1018.16,1,0
2022-11-02 15:24:01,874,384,-431,-2,0,-2,-11,88,34,32.4,34.5,1018.16,1,0
2022-11-02 15:24:01,825,407,-466,1,-5,0,-10,89,39,32.4,34.5,1018.16,1,0
2022-11-02 15:24:01,825,407,-466,1,-5,0,-10,89,39,32.4,34.5,1018.16,1,0
2022-11-02 15:24:01,825,407,-466,1,-5,0,-10,89,39,32.4,34.5,1018.16,1,0
2022-11-02 15:24:01,825,407,-466,1,-5,0,-10,89,39,32.4,34.5,1018.16,1,0
2022-11-02 15:24:01,825,407,-466,1,-5,0,-10,89,39,32.4,34.5,1018.16,1,0
2022-11-02 15:24:01,825,407,-466,1,-5,0,-10,89,39,32.4,34.5,1018.16,1,0
2022-11-02 15:24:01,864,380,-445,2,-3,0,-10,88,38,32.3,34.51,1018.16,1,0
2022-11-02 15:24:01,864,380,-445,2,-3,0,-10,88,38,32.3,34.51,1018.16,1,0
2022-11-02 15:24:01,864,380,-445,2,-3,0,-10,88,38,32.3,34.51,1018.16,1,0
2022-11-02 15:24:01,864,380,-445,2,-3,0,-10,88,38,32.3,34.51,1018.16,1,0
2022-11-02 15:24:01,864,380,-445,2,-3,0,-10,88,38,32.3,34.51,1018.16,1,0
2022-11-02 15:24:01,864,380,-445,2,-3,0,-10,88,38,32.3,34.51,1018.16,1,0
2022-11-02 15:24:01,851,361,-458,5,-3,1,-12,86,38,32.3,34.51,1018.16,1,0
2022-11-02 15:24:01,851,361,-458,5,-3,1,-12,86,38,32.3,34.51,1018.16,1,0
2022-11-02 15:24:01,851,361,-458,5,-3,1,-12,86,38,32.3,34.51,1018.16,1,0
2022-11-02 15:24:01,851,361,-458,5,-3,1,-12,86,38,32.3,34.51,1018.16,1,0
2022-11-02 15:24:01,851,361,-458,5,-3,1,-12,86,38,32.3,34.51,1018.16,1,0
2022-11-02 15:24:01,851,361,-458,5,-3,1,-12,86,38,32.3,34.51,1018.16,1,0
2022-11-02 15:24:01,847,368,-472,5,1,-1,-11,86,36,32.3,34.51,1018.16,1,0
2022-11-02 15:24:01,847,368,-472,5,1,-1,-11,86,36,32.3,34.51,1018.16,1,0
2022-11-02 15:24:01,847,368,-472,5,1,-1,-11,86,36,32.3,34.51,1018.16,1,0
2022-11-02 15:24:01,847,368,-472,5,1,-1,-11,86,36,32.3,34.51,1018.16,1,0
2022-11-02 15:24:01,847,368,-472,5,1,-1,-11,86,36,32.3,34.51,1018.16,1,0
2022-11-02 15:24:01,847,368,-472,5,1,-1,-11,86,36,32.3,34.51,1018.16,1,0
2022-11-02 15:24:01,847,349,-456,1,1,0,-12,86,34,32.3,34.51,1018.16,1,0
2022-11-02 15:24:01,847,349,-456,1,1,0,-12,86,34,32.3,34.51,1018.16,1,0
2022-11-02 15:24:01,847,349,-456,1,1,0,-12,86,34,32.3,34.51,1018.16,1,0
2022-11-02 15:24:01,847,349,-456,1,1,0,-12,86,34,32.3,34.51,1018.16,1,0
2022-11-02 15:24:01,847,349,-456,1,1,0,-12,86,34,32.3,34.51,1018.16,1,0
2022-11-02 15:24:01,847,349,-456,1,1,0,-12,86,34,32.3,34.51,1018.16,1,0
2022-11-02 15:24:02,853,366,-464,1,2,0,-10,86,32,32.3,34.51,1018.16,1,0
2022-11-02 15:24:02,853,366,-464,1,2,0,-10,86,32,32.3,34.51,1018.16,1,0
2022-11-02 15:24:02,853,366,-464,1,2,0,-10,86,32,32.3,34.51,1018.16,1,0
2022-11-02 15:24:02,853,366,-464,1,2,0,-10,86,32,32.3,34.51,1018.16,1,0
2022-11-02 15:24:02,853,366,-464,1,2,0,-10,86,32,32.3,34.51,1018.16,1,0
2022-11-02 15:24:02,853,366,-464,1,2,0,-10,86,32,32.3,34.51,1018.16,1,0
2022-11-02 15:24:02,854,370,-439,0,1,0,-11,87,37,32.3,34.51,1018.16,1,0
2022-11-02 15:24:02,854,370,-439,0,1,0,-11,87,37,32.3,34.51,1018.16,1,0
2022-11-02 15:24:02,854,370,-439,0,1,0,-11,87,37,32.3,34.51,1018.16,1,0
2022-11-02 15:24:02,854,370,-439,0,1,0,-11,87,37,32.3,34.51,1018.16,1,0
2022-11-02 15:24:02,854,370,-439,0,1,0,-11,87,37,32.3,34.51,1018.16,1,0
2022-11-02 15:24:02,854,370,-439,0,1,0,-11,87,37,32.3,34.51,1018.16,1,0
2022-11-02 15:24:02,853,365,-456,0,1,0,-12,86,34,32.3,34.51,1018.16,1,0
2022-11-02 15:24:02,853,365,-456,0,1,0,-12,86,34,32.3,34.51,1018.16,1,0
2022-11-02 15:24:02,853,365,-456,0,1,0,-12,86,34,32.3,34.51,1018.16,1,0
2022-11-02 15:24:02,853,365,-456,0,1,0,-12,86,34,32.3,34.51,1018.16,1,0
2022-11-02 15:24:02,853,365,-456,0,1,0,-12,86,34,32.3,34.51,1018.16,1,0
2022-11-02 15:24:02,853,365,-456,0,1,0,-12,86,34,32.3,34.51,1018.16,1,0
2022-11-02 15:24:02,854,365,-439,0,1,0,-11,88,36,32.3,34.51,1018.16,1,0
2022-11-02 15:24:02,854,365,-439,0,1,0,-11,88,36,32.3,34.51,1018.16,1,0
2022-11-02 15:24:02,854,365,-439,0,1,0,-11,88,36,32.3,34.51,1018.16,1,0
2022-11-02 15:24:02,854,365,-439,0,1,0,-11,88,36,32.3,34.51,1018.16,1,0
2022-11-02 15:24:02,854,365,-439,0,1,0,-11,88,36,32.3,34.51,1018.16,1,0
2022-11-02 15:24:02,854,365,-439,0,1,0,-11,88,36,32.3,34.51,1018.16,1,0
2022-11-02 15:24:02,856,353,-439,0,0,0,-11,85,36,32.3,34.51,1018.16,1,0
2022-11-02 15:24:02,856,353,-439,0,0,0,-11,85,36,32.3,34.51,1018.16,1,0
2022-11-02 15:24:02,856,353,-439,0,0,0,-11,85,36,32.3,34.51,1018.16,1,0
2022-11-02 15:24:02,856,353,-439,0,0,0,-11,85,36,32.3,34.51,1018.16,1,0
2022-11-02 15:24:02,856,353,-439,0,0,0,-11,85,36,32.3,34.51,1018.16,1,0
2022-11-02 15:24:02,856,353,-439,0,0,0,-11,85,36,32.3,34.51,1018.16,1,0
2022-11-02 15:24:02,853,363,-450,0,0,1,-10,87,32,32.3,34.51,1018.16,1,0
2022-11-02 15:24:02,853,363,-450,0,0,1,-10,87,32,32.3,34.51,1018.16,1,0
2022-11-02 15:24:02,853,363,-450,0,0,1,-10,87,32,32.3,34.51,1018.16,1,0
2022-11-02 15:24:02,853,363,-450,0,0,1,-10,87,32,32.3,34.51,1018.16,1,0
2022-11-02 15:24:02,853,363,-450,0,0,1,-10,87,32,32.3,34.51,1018.16,1,0
2022-11-02 15:24:02,853,363,-450,0,0,1,-10,87,32,32.3,34.51,1018.16,1,0
2022-11-02 15:24:02,849,353,-458,0,0,0,-11,85,34,32.4,34.51,1018.16,1,0
2022-11-02 15:24:02,849,353,-458,0,0,0,-11,85,34,32.4,34.51,1018.16,1,0
2022-11-02 15:24:02,849,353,-458,0,0,0,-11,85,34,32.4,34.51,1018.16,1,0
2022-11-02 15:24:02,849,353,-458,0,0,0,-11,85,34,32.4,34.51,1018.16,1,0
2022-11-02 15:24:02,849,353,-458,0,0,0,-11,85,34,32.4,34.51,1018.16,1,0
2022-11-02 15:24:02,849,353,-458,0,0,0,-11,85,34,32.4,34.51,1018.16,1,0
2022-11-02 15:24:02,868,349,-448,-1,0,0,-13,84,37,32.4,34.51,1018.16,1,0
2022-11-02 15:24:02,868,349,-448,-1,0,0,-13,84,37,32.4,34.51,1018.16,1,0
2022-11-02 15:24:02,868,349,-448,-1,0,0,-13,84,37,32.4,34.51,1018.16,1,0
2022-11-02 15:24:02,868,349,-448,-1,0,0,-13,84,37,32.4,34.51,1018.16,1,0
2022-11-02 15:24:02,868,349,-448,-1,0,0,-13,84,37,32.4,34.51,1018.16,1,0
2022-11-02 15:24:02,868,349,-448,-1,0,0,-13,84,37,32.4,34.51,1018.16,1,0
2022-11-02 15:24:02,860,357,-448,0,0,0,-10,88,37,32.4,34.51,1018.16,1,0
2022-11-02 15:24:02,860,357,-448,0,0,0,-10,88,37,32.4,34.51,1018.16,1,0
2022-11-02 15:24:02,860,357,-448,0,0,0,-10,88,37,32.4,34.51,1018.16,1,0
2022-11-02 15:24:02,860,357,-448,0,0,0,-10,88,37,32.4,34.51,1018.16,1,0
2022-11-02 15:24:02,860,357,-448,0,0,0,-10,88,37,32.4,34.51,1018.16,1,0
2022-11-02 15:24:02,860,357,-448,0,0,0,-10,88,37,32.4,34.51,1018.16,1,0
2022-11-02 15:24:02,854,353,-462,0,0,0,-11,83,35,32.4,34.51,1018.16,1,0
2022-11-02 15:24:02,854,353,-462,0,0,0,-11,83,35,32.4,34.51,1018.16,1,0
2022-11-02 15:24:02,854,353,-462,0,0,0,-11,83,35,32.4,34.51,1018.16,1,0
2022-11-02 15:24:02,854,353,-462,0,0,0,-11,83,35,32.4,34.51,1018.16,1,0
2022-11-02 15:24:02,854,353,-462,0,0,0,-11,83,35,32.4,34.51,1018.16,1,0
2022-11-02 15:24:02,854,353,-462,0,0,0,-11,83,35,32.4,34.51,1018.16,1,0
2022-11-02 15:24:03,854,353,-452,1,0,0,-10,84,37,32.4,34.51,1018.16,1,0
2022-11-02 15:24:03,854,353,-452,1,0,0,-10,84,37,32.4,34.51,1018.16,1,0
2022-11-02 15:24:03,854,353,-452,1,0,0,-10,84,37,32.4,34.51,1018.16,1,0
2022-11-02 15:24:03,854,353,-452,1,0,0,-10,84,37,32.4,34.51,1018.16,1,0
2022-11-02 15:24:03,854,353,-452,1,0,0,-10,84,37,32.4,34.51,1018.16,1,0
2022-11-02 15:24:03,854,353,-452,1,0,0,-10,84,37,32.4,34.51,1018.16,1,0
2022-11-02 15:24:03,858,347,-466,2,0,0,-10,85,33,32.4,34.51,1018.16,1,0
2022-11-02 15:24:03,858,347,-466,2,0,0,-10,85,33,32.4,34.51,1018.16,1,0
2022-11-02 15:24:03,858,347,-466,2,0,0,-10,85,33,32.4,34.51,1018.16,1,0
2022-11-02 15:24:03,858,347,-466,2,0,0,-10,85,33,32.4,34.51,1018.16,1,0
2022-11-02 15:24:03,858,347,-466,2,0,0,-10,85,33,32.4,34.51,1018.16,1,0
2022-11-02 15:24:03,858,347,-466,2,0,0,-10,85,33,32.4,34.51,1018.16,1,0
2022-11-02 15:24:03,853,349,-454,0,0,0,-11,87,31,32.4,34.51,1018.16,1,0
2022-11-02 15:24:03,853,349,-454,0,0,0,-11,87,31,32.4,34.51,1018.16,1,0
2022-11-02 15:24:03,853,349,-454,0,0,0,-11,87,31,32.4,34.51,1018.16,1,0
2022-11-02 15:24:03,853,349,-454,0,0,0,-11,87,31,32.4,34.51,1018.16,1,0
2022-11-02 15:24:03,853,349,-454,0,0,0,-11,87,31,32.4,34.51,1018.16,1,0
2022-11-02 15:24:03,853,349,-454,0,0,0,-11,87,31,32.4,34.51,1018.16,1,0
2022-11-02 15:24:03,853,347,-456,0,0,0,-11,88,34,32.4,34.51,1018.16,1,0
2022-11-02 15:24:03,853,347,-456,0,0,0,-11,88,34,32.4,34.51,1018.16,1,0
2022-11-02 15:24:03,853,347,-456,0,0,0,-11,88,34,32.4,34.51,1018.16,1,0
2022-11-02 15:24:03,853,347,-456,0,0,0,-11,88,34,32.4,34.51,1018.16,1,0
2022-11-02 15:24:03,853,347,-456,0,0,0,-11,88,34,32.4,34.51,1018.16,1,0
2022-11-02 15:24:03,853,347,-456,0,0,0,-11,88,34,32.4,34.51,1018.16,1,0
2022-11-02 15:24:03,849,357,-458,0,0,0,-9,84,34,32.4,34.51,1018.16,1,0
2022-11-02 15:24:03,849,357,-458,0,0,0,-9,84,34,32.4,34.51,1018.16,1,0
2022-11-02 15:24:03,849,357,-458,0,0,0,-9,84,34,32.4,34.51,1018.16,1,0
2022-11-02 15:24:03,849,357,-458,0,0,0,-9,84,34,32.4,34.51,1018.16,1,0
2022-11-02 15:24:03,849,357,-458,0,0,0,-9,84,34,32.4,34.51,1018.16,1,0
2022-11-02 15:24:03,849,357,-458,0,0,0,-9,84,34,32.4,34.51,1018.16,1,0
2022-11-02 15:24:03,851,347,-462,0,0,0,-12,87,34,32.4,34.51,1018.16,1,0
2022-11-02 15:24:03,851,347,-462,0,0,0,-12,87,34,32.4,34.51,1018.16,1,0
2022-11-02 15:24:03,851,347,-462,0,0,0,-12,87,34,32.4,34.51,1018.16,1,0
2022-11-02 15:24:03,851,347,-462,0,0,0,-12,87,34,32.4,34.51,1018.16,1,0
2022-11-02 15:24:03,851,347,-462,0,0,0,-12,87,34,32.4,34.51,1018.16,1,0
2022-11-02 15:24:03,851,347,-462,0,0,0,-12,87,34,32.4,34.51,1018.16,1,0
2022-11-02 15:24:03,854,347,-462,0,0,0,-10,86,27,32.3,34.51,1018.13,1,0
2022-11-02 15:24:03,854,347,-462,0,0,0,-10,86,27,32.3,34.51,1018.13,1,0
2022-11-02 15:24:03,854,347,-462,0,0,0,-10,86,27,32.3,34.51,1018.13,1,0
2022-11-02 15:24:03,854,347,-462,0,0,0,-10,86,27,32.3,34.51,1018.13,1,0
2022-11-02 15:24:03,854,347,-462,0,0,0,-10,86,27,32.3,34.51,1018.13,1,0
2022-11-02 15:24:03,854,347,-462,0,0,0,-10,86,27,32.3,34.51,1018.13,1,0
2022-11-02 15:24:03,860,353,-462,0,0,0,-12,86,34,32.3,34.51,1018.13,1,0
2022-11-02 15:24:03,860,353,-462,0,0,0,-12,86,34,32.3,34.51,1018.13,1,0
2022-11-02 15:24:03,860,353,-462,0,0,0,-12,86,34,32.3,34.51,1018.13,1,0
2022-11-02 15:24:03,860,353,-462,0,0,0,-12,86,34,32.3,34.51,1018.13,1,0
2022-11-02 15:24:03,860,353,-462,0,0,0,-12,86,34,32.3,34.51,1018.13,1,0
2022-11-02 15:24:03,860,353,-462,0,0,0,-12,86,34,32.3,34.51,1018.13,1,0
2022-11-02 15:24:03,847,359,-474,0,0,0,-13,88,34,32.3,34.51,1018.13,1,0
2022-11-02 15:24:03,847,359,-474,0,0,0,-13,88,34,32.3,34.51,1018.13,1,0
2022-11-02 15:24:03,847,359,-474,0,0,0,-13,88,34,32.3,34.51,1018.13,1,0
2022-11-02 15:24:03,847,359,-474,0,0,0,-13,88,34,32.3,34.51,1018.13,1,0
2022-11-02 15:24:03,847,359,-474,0,0,0,-13,88,34,32.3,34.51,1018.13,1,0
2022-11-02 15:24:03,847,359,-474,0,0,0,-13,88,34,32.3,34.51,1018.13,1,0
2022-11-02 15:24:03,854,353,-450,0,0,0,-10,87,32,32.3,34.51,1018.13,1,0
2022-11-02 15:24:03,854,353,-450,0,0,0,-10,87,32,32.3,34.51,1018.13,1,0
2022-11-02 15:24:03,854,353,-450,0,0,0,-10,87,32,32.3,34.51,1018.13,1,0
2022-11-02 15:24:03,854,353,-450,0,0,0,-10,87,32,32.3,34.51,1018.13,1,0
2022-11-02 15:24:03,854,353,-450,0,0,0,-10,87,32,32.3,34.51,1018.13,1,0
2022-11-02 15:24:03,854,353,-450,0,0,0,-10,87,32,32.3,34.51,1018.13,1,0
2022-11-02 15:24:04,854,347,-456,0,0,0,-9,86,37,32.3,34.51,1018.13,1,0
2022-11-02 15:24:04,854,347,-456,0,0,0,-9,86,37,32.3,34.51,1018.13,1,0
2022-11-02 15:24:04,854,347,-456,0,0,0,-9,86,37,32.3,34.51,1018.13,1,0
2022-11-02 15:24:04,854,347,-456,0,0,0,-9,86,37,32.3,34.51,1018.13,1,0
2022-11-02 15:24:04,854,347,-456,0,0,0,-9,86,37,32.3,34.51,1018.13,1,0
2022-11-02 15:24:04,854,347,-456,0,0,0,-9,86,37,32.3,34.51,1018.13,1,0
2022-11-02 15:24:04,862,353,-458,0,0,0,-10,87,36,32.3,34.51,1018.13,1,0
2022-11-02 15:24:04,862,353,-458,0,0,0,-10,87,36,32.3,34.51,1018.13,1,0
2022-11-02 15:24:04,862,353,-458,0,0,0,-10,87,36,32.3,34.51,1018.13,1,0
2022-11-02 15:24:04,862,353,-458,0,0,0,-10,87,36,32.3,34.51,1018.13,1,0
2022-11-02 15:24:04,862,353,-458,0,0,0,-10,87,36,32.3,34.51,1018.13,1,0
2022-11-02 15:24:04,862,353,-458,0,0,0,-10,87,36,32.3,34.51,1018.13,1,0
2022-11-02 15:24:04,847,353,-454,-1,0,0,-10,85,33,32.3,34.51,1018.13,1,0
2022-11-02 15:24:04,847,353,-454,-1,0,0,-10,85,33,32.3,34.51,1018.13,1,0
2022-11-02 15:24:04,847,353,-454,-1,0,0,-10,85,33,32.3,34.51,1018.13,1,0
2022-11-02 15:24:04,847,353,-454,-1,0,0,-10,85,33,32.3,34.51,1018.13,1,0
2022-11-02 15:24:04,847,353,-454,-1,0,0,-10,85,33,32.3,34.51,1018.13,1,0
2022-11-02 15:24:04,847,353,-454,-1,0,0,-10,85,33,32.3,34.51,1018.13,1,0
2022-11-02 15:24:04,849,345,-460,0,0,0,-12,88,36,32.3,34.51,1018.13,1,0
2022-11-02 15:24:04,849,345,-460,0,0,0,-12,88,36,32.3,34.51,1018.13,1,0
2022-11-02 15:24:04,849,345,-460,0,0,0,-12,88,36,32.3,34.51,1018.13,1,0
2022-11-02 15:24:04,849,345,-460,0,0,0,-12,88,36,32.3,34.51,1018.13,1,0
2022-11-02 15:24:04,849,345,-460,0,0,0,-12,88,36,32.3,34.51,1018.13,1,0
2022-11-02 15:24:04,849,345,-460,0,0,0,-12,88,36,32.3,34.51,1018.13,1,0
2022-11-02 15:24:04,851,363,-458,0,0,0,-11,86,36,32.3,34.51,1018.13,1,0
2022-11-02 15:24:04,851,363,-458,0,0,0,-11,86,36,32.3,34.51,1018.13,1,0
2022-11-02 15:24:04,851,363,-458,0,0,0,-11,86,36,32.3,34.51,1018.13,1,0
2022-11-02 15:24:04,851,363,-458,0,0,0,-11,86,36,32.3,34.51,1018.13,1,0
2022-11-02 15:24:04,851,363,-458,0,0,0,-11,86,36,32.3,34.51,1018.13,1,0
2022-11-02 15:24:04,851,363,-458,0,0,0,-11,86,36,32.3,34.51,1018.13,1,0
2022-11-02 15:24:04,853,351,-460,0,0,0,-12,85,35,32.3,34.51,1018.13,1,0
2022-11-02 15:24:04,853,351,-460,0,0,0,-12,85,35,32.3,34.51,1018.13,1,0
2022-11-02 15:24:04,853,351,-460,0,0,0,-12,85,35,32.3,34.51,1018.13,1,0
2022-11-02 15:24:04,853,351,-460,0,0,0,-12,85,35,32.3,34.51,1018.13,1,0
2022-11-02 15:24:04,853,351,-460,0,0,0,-12,85,35,32.3,34.51,1018.13,1,0
2022-11-02 15:24:04,853,351,-460,0,0,0,-12,85,35,32.3,34.51,1018.13,1,0
2022-11-02 15:24:04,853,351,-458,0,0,0,-11,84,33,32.4,34.52,1018.13,1,0
2022-11-02 15:24:04,853,351,-458,0,0,0,-11,84,33,32.4,34.52,1018.13,1,0
2022-11-02 15:24:04,853,351,-458,0,0,0,-11,84,33,32.4,34.52,1018.13,1,0
2022-11-02 15:24:04,853,351,-458,0,0,0,-11,84,33,32.4,34.52,1018.13,1,0
2022-11-02 15:24:04,853,351,-458,0,0,0,-11,84,33,32.4,34.52,1018.13,1,0
2022-11-02 15:24:04,853,351,-458,0,0,0,-11,84,33,32.4,34.52,1018.13,1,0
2022-11-02 15:24:04,845,343,-462,0,0,0,-9,87,37,32.4,34.52,1018.13,1,0
2022-11-02 15:24:04,845,343,-462,0,0,0,-9,87,37,32.4,34.52,1018.13,1,0
2022-11-02 15:24:04,845,343,-462,0,0,0,-9,87,37,32.4,34.52,1018.13,1,0
2022-11-02 15:24:04,845,343,-462,0,0,0,-9,87,37,32.4,34.52,1018.13,1,0
2022-11-02 15:24:04,845,343,-462,0,0,0,-9,87,37,32.4,34.52,1018.13,1,0
2022-11-02 15:24:04,845,343,-462,0,0,0,-9,87,37,32.4,34.52,1018.13,1,0
2022-11-02 15:24:04,853,351,-468,0,0,0,-13,88,32,32.4,34.52,1018.13,1,0
2022-11-02 15:24:04,853,351,-468,0,0,0,-13,88,32,32.4,34.52,1018.13,1,0
2022-11-02 15:24:04,853,351,-468,0,0,0,-13,88,32,32.4,34.52,1018.13,1,0
2022-11-02 15:24:04,853,351,-468,0,0,0,-13,88,32,32.4,34.52,1018.13,1,0
2022-11-02 15:24:04,853,351,-468,0,0,0,-13,88,32,32.4,34.52,1018.13,1,0
2022-11-02 15:24:04,853,351,-468,0,0,0,-13,88,32,32.4,34.52,1018.13,1,0
2022-11-02 15:24:04,853,359,-462,0,0,0,-11,85,35,32.4,34.52,1018.13,1,0
2022-11-02 15:24:04,853,359,-462,0,0,0,-11,85,35,32.4,34.52,1018.13,1,0
2022-11-02 15:24:04,853,359,-462,0,0,0,-11,85,35,32.4,34.52,1018.13,1,0
2022-11-02 15:24:04,853,359,-462,0,0,0,-11,85,35,32.4,34.52,1018.13,1,0
2022-11-02 15:24:04,853,359,-462,0,0,0,-11,85,35,32.4,34.52,1018.13,1,0
2022-11-02 15:24:04,853,359,-462,0,0,0,-11,85,35,32.4,34.52,1018.13,1,0
2022-11-02 15:24:05,851,349,-468,0,0,0,-11,89,31,32.4,34.52,1018.13,1,0
2022-11-02 15:24:05,851,349,-468,0,0,0,-11,89,31,32.4,34.52,1018.13,1,0
2022-11-02 15:24:05,851,349,-468,0,0,0,-11,89,31,32.4,34.52,1018.13,1,0
2022-11-02 15:24:05,851,349,-468,0,0,0,-11,89,31,32.4,34.52,1018.13,1,0
2022-11-02 15:24:05,851,349,-468,0,0,0,-11,89,31,32.4,34.52,1018.13,1,0
2022-11-02 15:24:05,851,349,-468,0,0,0,-11,89,31,32.4,34.52,1018.13,1,0
2022-11-02 15:24:05,851,343,-466,0,0,0,-11,88,34,32.4,34.52,1018.13,1,0
2022-11-02 15:24:05,851,343,-466,0,0,0,-11,88,34,32.4,34.52,1018.13,1,0
2022-11-02 15:24:05,851,343,-466,0,0,0,-11,88,34,32.4,34.52,1018.13,1,0
2022-11-02 15:24:05,851,343,-466,0,0,0,-11,88,34,32.4,34.52,1018.13,1,0
2022-11-02 15:24:05,851,343,-466,0,0,0,-11,88,34,32.4,34.52,1018.13,1,0
2022-11-02 15:24:05,851,343,-466,0,0,0,-11,88,34,32.4,34.52,1018.13,1,0
2022-11-02 15:24:05,851,368,-472,0,1,0,-12,88,37,32.4,34.52,1018.13,1,0
2022-11-02 15:24:05,851,368,-472,0,1,0,-12,88,37,32.4,34.52,1018.13,1,0
2022-11-02 15:24:05,851,368,-472,0,1,0,-12,88,37,32.4,34.52,1018.13,1,0
2022-11-02 15:24:05,851,368,-472,0,1,0,-12,88,37,32.4,34.52,1018.13,1,0
2022-11-02 15:24:05,851,368,-472,0,1,0,-12,88,37,32.4,34.52,1018.13,1,0
2022-11-02 15:24:05,851,368,-472,0,1,0,-12,88,37,32.4,34.52,1018.13,1,0
2022-11-02 15:24:05,851,357,-458,-2,0,0,-12,84,36,32.4,34.52,1018.13,1,0
2022-11-02 15:24:05,851,357,-458,-2,0,0,-12,84,36,32.4,34.52,1018.13,1,0
2022-11-02 15:24:05,851,357,-458,-2,0,0,-12,84,36,32.4,34.52,1018.13,1,0
2022-11-02 15:24:05,851,357,-458,-2,0,0,-12,84,36,32.4,34.52,1018.13,1,0
2022-11-02 15:24:05,851,357,-458,-2,0,0,-12,84,36,32.4,34.52,1018.13,1,0
2022-11-02 15:24:05,851,357,-458,-2,0,0,-12,84,36,32.4,34.52,1018.13,1,0
2022-11-02 15:24:05,853,345,-468,-1,0,0,-11,85,31,32.4,34.52,1018.13,1,0
2022-11-02 15:24:05,853,345,-468,-1,0,0,-11,85,31,32.4,34.52,1018.13,1,0
2022-11-02 15:24:05,853,345,-468,-1,0,0,-11,85,31,32.4,34.52,1018.13,1,0
2022-11-02 15:24:05,853,345,-468,-1,0,0,-11,85,31,32.4,34.52,1018.13,1,0
2022-11-02 15:24:05,853,345,-468,-1,0,0,-11,85,31,32.4,34.52,1018.13,1,0
2022-11-02 15:24:05,853,345,-468,-1,0,0,-11,85,31,32.4,34.52,1018.13,1,0
2022-11-02 15:24:05,849,347,-462,0,0,0,-11,85,37,32.4,34.52,1018.13,1,0
2022-11-02 15:24:05,849,347,-462,0,0,0,-11,85,37,32.4,34.52,1018.13,1,0
2022-11-02 15:24:05,849,347,-462,0,0,0,-11,85,37,32.4,34.52,1018.13,1,0
2022-11-02 15:24:05,849,347,-462,0,0,0,-11,85,37,32.4,34.52,1018.13,1,0
2022-11-02 15:24:05,849,347,-462,0,0,0,-11,85,37,32.4,34.52,1018.13,1,0
2022-11-02 15:24:05,849,347,-462,0,0,0,-11,85,37,32.4,34.52,1018.13,1,0
2022-11-02 15:24:05,860,349,-470,0,0,0,-12,88,33,32.4,34.52,1018.17,1,0
2022-11-02 15:24:05,860,349,-470,0,0,0,-12,88,33,32.4,34.52,1018.17,1,0
2022-11-02 15:24:05,860,349,-470,0,0,0,-12,88,33,32.4,34.52,1018.17,1,0
2022-11-02 15:24:05,860,349,-470,0,0,0,-12,88,33,32.4,34.52,1018.17,1,0
2022-11-02 15:24:05,860,349,-470,0,0,0,-12,88,33,32.4,34.52,1018.17,1,0
2022-11-02 15:24:05,860,349,-470,0,0,0,-12,88,33,32.4,34.52,1018.17,1,0
2022-11-02 15:24:05,854,349,-476,0,0,0,-11,87,36,32.4,34.52,1018.17,1,0
2022-11-02 15:24:05,854,349,-476,0,0,0,-11,87,36,32.4,34.52,1018.17,1,0
2022-11-02 15:24:05,854,349,-476,0,0,0,-11,87,36,32.4,34.52,1018.17,1,0
2022-11-02 15:24:05,854,349,-476,0,0,0,-11,87,36,32.4,34.52,1018.17,1,0
2022-11-02 15:24:05,854,349,-476,0,0,0,-11,87,36,32.4,34.52,1018.17,1,0
2022-11-02 15:24:05,854,349,-476,0,0,0,-11,87,36,32.4,34.52,1018.17,1,0
2022-11-02 15:24:05,849,349,-454,0,0,0,-12,86,33,32.4,34.52,1018.17,1,0
2022-11-02 15:24:05,849,349,-454,0,0,0,-12,86,33,32.4,34.52,1018.17,1,0
2022-11-02 15:24:05,849,349,-454,0,0,0,-12,86,33,32.4,34.52,1018.17,1,0
2022-11-02 15:24:05,849,349,-454,0,0,0,-12,86,33,32.4,34.52,1018.17,1,0
2022-11-02 15:24:05,849,349,-454,0,0,0,-12,86,33,32.4,34.52,1018.17,1,0
2022-11-02 15:24:05,849,349,-454,0,0,0,-12,86,33,32.4,34.52,1018.17,1,0
2022-11-02 15:24:05,851,361,-464,1,0,0,-10,88,34,32.4,34.52,1018.17,1,0
2022-11-02 15:24:05,851,361,-464,1,0,0,-10,88,34,32.4,34.52,1018.17,1,0
2022-11-02 15:24:05,851,361,-464,1,0,0,-10,88,34,32.4,34.52,1018.17,1,0
2022-11-02 15:24:05,851,361,-464,1,0,0,-10,88,34,32.4,34.52,1018.17,1,0
2022-11-02 15:24:05,851,361,-464,1,0,0,-10,88,34,32.4,34.52,1018.17,1,0
2022-11-02 15:24:05,851,361,-464,1,0,0,-10,88,34,32.4,34.52,1018.17,1,0
2022-11-02 15:24:06,853,357,-460,1,0,0,-11,88,37,32.4,34.52,1018.17,1,0
2022-11-02 15:24:06,853,357,-460,1,0,0,-11,88,37,32.4,34.52,1018.17,1,0
2022-11-02 15:24:06,853,357,-460,1,0,0,-11,88,37,32.4,34.52,1018.17,1,0
2022-11-02 15:24:06,853,357,-460,1,0,0,-11,88,37,32.4,34.52,1018.17,1,0
2022-11-02 15:24:06,853,357,-460,1,0,0,-11,88,37,32.4,34.52,1018.17,1,0
2022-11-02 15:24:06,853,357,-460,1,0,0,-11,88,37,32.4,34.52,1018.17,1,0
2022-11-02 15:24:06,847,343,-474,0,0,0,-10,86,36,32.4,34.52,1018.17,1,0
2022-11-02 15:24:06,847,343,-474,0,0,0,-10,86,36,32.4,34.52,1018.17,1,0
2022-11-02 15:24:06,847,343,-474,0,0,0,-10,86,36,32.4,34.52,1018.17,1,0
2022-11-02 15:24:06,847,343,-474,0,0,0,-10,86,36,32.4,34.52,1018.17,1,0
2022-11-02 15:24:06,847,343,-474,0,0,0,-10,86,36,32.4,34.52,1018.17,1,0
2022-11-02 15:24:06,847,343,-474,0,0,0,-10,86,36,32.4,34.52,1018.17,1,0
2022-11-02 15:24:06,849,351,-472,0,0,0,-11,85,35,32.4,34.52,1018.17,1,0
2022-11-02 15:24:06,849,351,-472,0,0,0,-11,85,35,32.4,34.52,1018.17,1,0
2022-11-02 15:24:06,849,351,-472,0,0,0,-11,85,35,32.4,34.52,1018.17,1,0
2022-11-02 15:24:06,849,351,-472,0,0,0,-11,85,35,32.4,34.52,1018.17,1,0
2022-11-02 15:24:06,849,351,-472,0,0,0,-11,85,35,32.4,34.52,1018.17,1,0
2022-11-02 15:24:06,849,351,-472,0,0,0,-11,85,35,32.4,34.52,1018.17,1,0
2022-11-02 15:24:06,843,357,-470,0,1,0,-10,86,32,32.4,34.52,1018.17,1,0
2022-11-02 15:24:06,843,357,-470,0,1,0,-10,86,32,32.4,34.52,1018.17,1,0
2022-11-02 15:24:06,843,357,-470,0,1,0,-10,86,32,32.4,34.52,1018.17,1,0
2022-11-02 15:24:06,843,357,-470,0,1,0,-10,86,32,32.4,34.52,1018.17,1,0
2022-11-02 15:24:06,843,357,-470,0,1,0,-10,86,32,32.4,34.52,1018.17,1,0
2022-11-02 15:24:06,843,357,-470,0,1,0,-10,86,32,32.4,34.52,1018.17,1,0
2022-11-02 15:24:06,853,357,-468,0,1,0,-12,87,29,32.4,34.52,1018.17,1,0
2022-11-02 15:24:06,853,357,-468,0,1,0,-12,87,29,32.4,34.52,1018.17,1,0
2022-11-02 15:24:06,853,357,-468,0,1,0,-12,87,29,32.4,34.52,1018.17,1,0
2022-11-02 15:24:06,853,357,-468,0,1,0,-12,87,29,32.4,34.52,1018.17,1,0
2022-11-02 15:24:06,853,357,-468,0,1,0,-12,87,29,32.4,34.52,1018.17,1,0
2022-11-02 15:24:06,853,357,-468,0,1,0,-12,87,29,32.4,34.52,1018.17,1,0
2022-11-02 15:24:06,849,357,-466,0,0,0,-11,83,32,32.4,34.52,1018.17,1,0
2022-11-02 15:24:06,849,357,-466,0,0,0,-11,83,32,32.4,34.52,1018.17,1,0
2022-11-02 15:24:06,849,357,-466,0,0,0,-11,83,32,32.4,34.52,1018.17,1,0
2022-11-02 15:24:06,849,357,-466,0,0,0,-11,83,32,32.4,34.52,1018.17,1,0
2022-11-02 15:24:06,849,357,-466,0,0,0,-11,83,32,32.4,34.52,1018.17,1,0
2022-11-02 15:24:06,849,357,-466,0,0,0,-11,83,32,32.4,34.52,1018.17,1,0
2022-11-02 15:24:06,843,347,-476,0,1,0,-11,88,37,32.4,34.52,1018.13,1,0
2022-11-02 15:24:06,843,347,-476,0,1,0,-11,88,37,32.4,34.52,1018.13,1,0
2022-11-02 15:24:06,843,347,-476,0,1,0,-11,88,37,32.4,34.52,1018.13,1,0
2022-11-02 15:24:06,843,347,-476,0,1,0,-11,88,37,32.4,34.52,1018.13,1,0
2022-11-02 15:24:06,843,347,-476,0,1,0,-11,88,37,32.4,34.52,1018.13,1,0
2022-11-02 15:24:06,843,347,-476,0,1,0,-11,88,37,32.4,34.52,1018.13,1,0
2022-11-02 15:24:06,851,359,-458,1,1,0,-11,87,30,32.4,34.52,1018.13,1,0
2022-11-02 15:24:06,851,359,-458,1,1,0,-11,87,30,32.4,34.52,1018.13,1,0
2022-11-02 15:24:06,851,359,-458,1,1,0,-11,87,30,32.4,34.52,1018.13,1,0
2022-11-02 15:24:06,851,359,-458,1,1,0,-11,87,30,32.4,34.52,1018.13,1,0
2022-11-02 15:24:06,851,359,-458,1,1,0,-11,87,30,32.4,34.52,1018.13,1,0
2022-11-02 15:24:06,851,359,-458,1,1,0,-11,87,30,32.4,34.52,1018.13,1,0
2022-11-02 15:24:06,854,339,-462,0,2,0,-12,87,33,32.4,34.52,1018.13,1,0
2022-11-02 15:24:06,854,339,-462,0,2,0,-12,87,33,32.4,34.52,1018.13,1,0
2022-11-02 15:24:06,854,339,-462,0,2,0,-12,87,33,32.4,34.52,1018.13,1,0
2022-11-02 15:24:06,854,339,-462,0,2,0,-12,87,33,32.4,34.52,1018.13,1,0
2022-11-02 15:24:06,854,339,-462,0,2,0,-12,87,33,32.4,34.52,1018.13,1,0
2022-11-02 15:24:06,854,339,-462,0,2,0,-12,87,33,32.4,34.52,1018.13,1,0
2022-11-02 15:24:06,860,335,-460,0,1,0,-11,84,33,32.4,34.52,1018.13,1,0
2022-11-02 15:24:06,860,335,-460,0,1,0,-11,84,33,32.4,34.52,1018.13,1,0
2022-11-02 15:24:06,860,335,-460,0,1,0,-11,84,33,32.4,34.52,1018.13,1,0
2022-11-02 15:24:06,860,335,-460,0,1,0,-11,84,33,32.4,34.52,1018.13,1,0
2022-11-02 15:24:06,860,335,-460,0,1,0,-11,84,33,32.4,34.52,1018.13,1,0
2022-11-02 15:24:06,860,335,-460,0,1,0,-11,84,33,32.4,34.52,1018.13,1,0
2022-11-02 15:24:07,856,345,-450,-1,0,0,-11,86,36,32.4,34.52,1018.13,1,0
2022-11-02 15:24:07,856,345,-450,-1,0,0,-11,86,36,32.4,34.52,1018.13,1,0
2022-11-02 15:24:07,856,345,-450,-1,0,0,-11,86,36,32.4,34.52,1018.13,1,0
2022-11-02 15:24:07,856,345,-450,-1,0,0,-11,86,36,32.4,34.52,1018.13,1,0
2022-11-02 15:24:07,856,345,-450,-1,0,0,-11,86,36,32.4,34.52,1018.13,1,0
2022-11-02 15:24:07,856,345,-450,-1,0,0,-11,86,36,32.4,34.52,1018.13,1,0
2022-11-02 15:24:07,856,345,-460,0,0,0,-12,88,33,32.4,34.52,1018.13,1,0
2022-11-02 15:24:07,856,345,-460,0,0,0,-12,88,33,32.4,34.52,1018.13,1,0
2022-11-02 15:24:07,856,345,-460,0,0,0,-12,88,33,32.4,34.52,1018.13,1,0
2022-11-02 15:24:07,856,345,-460,0,0,0,-12,88,33,32.4,34.52,1018.13,1,0
2022-11-02 15:24:07,856,345,-460,0,0,0,-12,88,33,32.4,34.52,1018.13,1,0
2022-11-02 15:24:07,856,345,-460,0,0,0,-12,88,33,32.4,34.52,1018.13,1,0
2022-11-02 15:24:07,845,339,-458,0,0,0,-10,85,33,32.4,34.52,1018.13,1,0
2022-11-02 15:24:07,845,339,-458,0,0,0,-10,85,33,32.4,34.52,1018.13,1,0
2022-11-02 15:24:07,845,339,-458,0,0,0,-10,85,33,32.4,34.52,1018.13,1,0
2022-11-02 15:24:07,845,339,-458,0,0,0,-10,85,33,32.4,34.52,1018.13,1,0
2022-11-02 15:24:07,845,339,-458,0,0,0,-10,85,33,32.4,34.52,1018.13,1,0
2022-11-02 15:24:07,845,339,-458,0,0,0,-10,85,33,32.4,34.52,1018.13,1,0
2022-11-02 15:24:07,858,333,-470,0,0,0,-8,87,33,32.4,34.52,1018.13,1,0
2022-11-02 15:24:07,858,333,-470,0,0,0,-8,87,33,32.4,34.52,1018.13,1,0
2022-11-02 15:24:07,858,333,-470,0,0,0,-8,87,33,32.4,34.52,1018.13,1,0
2022-11-02 15:24:07,858,333,-470,0,0,0,-8,87,33,32.4,34.52,1018.13,1,0
2022-11-02 15:24:07,858,333,-470,0,0,0,-8,87,33,32.4,34.52,1018.13,1,0
2022-11-02 15:24:07,858,333,-470,0,0,0,-8,87,33,32.4,34.52,1018.13,1,0
2022-11-02 15:24:07,851,351,-474,0,0,0,-11,85,28,32.4,34.52,1018.13,1,0
2022-11-02 15:24:07,851,351,-474,0,0,0,-11,85,28,32.4,34.52,1018.13,1,0
2022-11-02 15:24:07,851,351,-474,0,0,0,-11,85,28,32.4,34.52,1018.13,1,0
2022-11-02 15:24:07,851,351,-474,0,0,0,-11,85,28,32.4,34.52,1018.13,1,0
2022-11-02 15:24:07,851,351,-474,0,0,0,-11,85,28,32.4,34.52,1018.13,1,0
2022-11-02 15:24:07,851,351,-474,0,0,0,-11,85,28,32.4,34.52,1018.13,1,0
2022-11-02 15:24:07,851,341,-460,0,0,0,-12,85,33,32.4,34.52,1018.13,1,0
2022-11-02 15:24:07,851,341,-460,0,0,0,-12,85,33,32.4,34.52,1018.13,1,0
2022-11-02 15:24:07,851,341,-460,0,0,0,-12,85,33,32.4,34.52,1018.13,1,0
2022-11-02 15:24:07,851,341,-460,0,0,0,-12,85,33,32.4,34.52,1018.13,1,0
2022-11-02 15:24:07,851,341,-460,0,0,0,-12,85,33,32.4,34.52,1018.13,1,0
2022-11-02 15:24:07,851,341,-460,0,0,0,-12,85,33,32.4,34.52,1018.13,1,0
2022-11-02 15:24:07,851,347,-474,0,0,0,-10,87,37,32.4,34.52,1018.17,1,0
2022-11-02 15:24:07,851,347,-474,0,0,0,-10,87,37,32.4,34.52,1018.17,1,0
2022-11-02 15:24:07,851,347,-474,0,0,0,-10,87,37,32.4,34.52,1018.17,1,0
2022-11-02 15:24:07,851,347,-474,0,0,0,-10,87,37,32.4,34.52,1018.17,1,0
2022-11-02 15:24:07,851,347,-474,0,0,0,-10,87,37,32.4,34.52,1018.17,1,0
2022-11-02 15:24:07,851,347,-474,0,0,0,-10,87,37,32.4,34.52,1018.17,1,0
2022-11-02 15:24:07,847,343,-468,0,0,0,-10,84,37,32.4,34.52,1018.17,1,0
2022-11-02 15:24:07,847,343,-468,0,0,0,-10,84,37,32.4,34.52,1018.17,1,0
2022-11-02 15:24:07,847,343,-468,0,0,0,-10,84,37,32.4,34.52,1018.17,1,0
2022-11-02 15:24:07,847,343,-468,0,0,0,-10,84,37,32.4,34.52,1018.17,1,0
2022-11-02 15:24:07,847,343,-468,0,0,0,-10,84,37,32.4,34.52,1018.17,1,0
2022-11-02 15:24:07,847,343,-468,0,0,0,-10,84,37,32.4,34.52,1018.17,1,0
2022-11-02 15:24:07,860,343,-470,-1,0,0,-11,86,35,32.4,34.52,1018.17,1,0
2022-11-02 15:24:07,860,343,-470,-1,0,0,-11,86,35,32.4,34.52,1018.17,1,0
2022-11-02 15:24:07,860,343,-470,-1,0,0,-11,86,35,32.4,34.52,1018.17,1,0
2022-11-02 15:24:07,860,343,-470,-1,0,0,-11,86,35,32.4,34.52,1018.17,1,0
2022-11-02 15:24:07,860,343,-470,-1,0,0,-11,86,35,32.4,34.52,1018.17,1,0
2022-11-02 15:24:07,860,343,-470,-1,0,0,-11,86,35,32.4,34.52,1018.17,1,0
2022-11-02 15:24:07,860,347,-456,0,0,0,-11,88,33,32.4,34.52,1018.17,1,0
2022-11-02 15:24:07,860,347,-456,0,0,0,-11,88,33,32.4,34.52,1018.17,1,0
2022-11-02 15:24:07,860,347,-456,0,0,0,-11,88,33,32.4,34.52,1018.17,1,0
2022-11-02 15:24:07,860,347,-456,0,0,0,-11,88,33,32.4,34.52,1018.17,1,0
2022-11-02 15:24:07,860,347,-456,0,0,0,-11,88,33,32.4,34.52,1018.17,1,0
2022-11-02 15:24:07,860,347,-456,0,0,0,-11,88,33,32.4,34.52,1018.17,1,0
2022-11-02 15:24:08,856,347,-460,0,0,0,-11,85,34,32.4,34.52,1018.17,1,0
2022-11-02 15:24:08,856,347,-460,0,0,0,-11,85,34,32.4,34.52,1018.17,1,0
2022-11-02 15:24:08,856,347,-460,0,0,0,-11,85,34,32.4,34.52,1018.17,1,0
2022-11-02 15:24:08,856,347,-460,0,0,0,-11,85,34,32.4,34.52,1018.17,1,0
2022-11-02 15:24:08,856,347,-460,0,0,0,-11,85,34,32.4,34.52,1018.17,1,0
2022-11-02 15:24:08,856,347,-460,0,0,0,-11,85,34,32.4,34.52,1018.17,1,0
2022-11-02 15:24:08,860,343,-468,1,0,0,-11,87,32,32.4,34.52,1018.17,1,0
2022-11-02 15:24:08,860,343,-468,1,0,0,-11,87,32,32.4,34.52,1018.17,1,0
2022-11-02 15:24:08,860,343,-468,1,0,0,-11,87,32,32.4,34.52,1018.17,1,0
2022-11-02 15:24:08,860,343,-468,1,0,0,-11,87,32,32.4,34.52,1018.17,1,0
2022-11-02 15:24:08,860,343,-468,1,0,0,-11,87,32,32.4,34.52,1018.17,1,0
2022-11-02 15:24:08,860,343,-468,1,0,0,-11,87,32,32.4,34.52,1018.17,1,0
2022-11-02 15:24:08,853,349,-468,0,0,0,-9,87,34,32.4,34.52,1018.17,1,0
2022-11-02 15:24:08,853,349,-468,0,0,0,-9,87,34,32.4,34.52,1018.17,1,0
2022-11-02 15:24:08,853,349,-468,0,0,0,-9,87,34,32.4,34.52,1018.17,1,0
2022-11-02 15:24:08,853,349,-468,0,0,0,-9,87,34,32.4,34.52,1018.17,1,0
2022-11-02 15:24:08,853,349,-468,0,0,0,-9,87,34,32.4,34.52,1018.17,1,0
2022-11-02 15:24:08,853,349,-468,0,0,0,-9,87,34,32.4,34.52,1018.17,1,0
2022-11-02 15:24:08,843,335,-476,1,0,0,-12,84,36,32.4,34.52,1018.17,1,0
2022-11-02 15:24:08,843,335,-476,1,0,0,-12,84,36,32.4,34.52,1018.17,1,0
2022-11-02 15:24:08,843,335,-476,1,0,0,-12,84,36,32.4,34.52,1018.17,1,0
2022-11-02 15:24:08,843,335,-476,1,0,0,-12,84,36,32.4,34.52,1018.17,1,0
2022-11-02 15:24:08,843,335,-476,1,0,0,-12,84,36,32.4,34.52,1018.17,1,0
2022-11-02 15:24:08,843,335,-476,1,0,0,-12,84,36,32.4,34.52,1018.17,1,0
2022-11-02 15:24:08,853,345,-462,0,0,0,-12,83,33,32.4,34.52,1018.17,1,0
2022-11-02 15:24:08,853,345,-462,0,0,0,-12,83,33,32.4,34.52,1018.17,1,0
2022-11-02 15:24:08,853,345,-462,0,0,0,-12,83,33,32.4,34.52,1018.17,1,0
2022-11-02 15:24:08,853,345,-462,0,0,0,-12,83,33,32.4,34.52,1018.17,1,0
2022-11-02 15:24:08,853,345,-462,0,0,0,-12,83,33,32.4,34.52,1018.17,1,0
2022-11-02 15:24:08,853,345,-462,0,0,0,-12,83,33,32.4,34.52,1018.17,1,0
2022-11-02 15:24:08,854,341,-472,0,0,0,-11,86,38,32.4,34.52,1018.17,1,0
2022-11-02 15:24:08,854,341,-472,0,0,0,-11,86,38,32.4,34.52,1018.17,1,0
2022-11-02 15:24:08,854,341,-472,0,0,0,-11,86,38,32.4,34.52,1018.17,1,0
2022-11-02 15:24:08,854,341,-472,0,0,0,-11,86,38,32.4,34.52,1018.17,1,0
2022-11-02 15:24:08,854,341,-472,0,0,0,-11,86,38,32.4,34.52,1018.17,1,0
2022-11-02 15:24:08,854,341,-472,0,0,0,-11,86,38,32.4,34.52,1018.17,1,0
2022-11-02 15:24:08,851,343,-474,0,0,0,-11,86,34,32.4,34.54,1018.14,1,0
2022-11-02 15:24:08,851,343,-474,0,0,0,-11,86,34,32.4,34.54,1018.14,1,0
2022-11-02 15:24:08,851,343,-474,0,0,0,-11,86,34,32.4,34.54,1018.14,1,0
2022-11-02 15:24:08,851,343,-474,0,0,0,-11,86,34,32.4,34.54,1018.14,1,0
2022-11-02 15:24:08,851,343,-474,0,0,0,-11,86,34,32.4,34.54,1018.14,1,0
2022-11-02 15:24:08,851,343,-474,0,0,0,-11,86,34,32.4,34.54,1018.14,1,0
2022-11-02 15:24:08,851,351,-478,0,0,0,-11,87,31,32.4,34.54,1018.14,1,0
2022-11-02 15:24:08,851,351,-478,0,0,0,-11,87,31,32.4,34.54,1018.14,1,0
2022-11-02 15:24:08,851,351,-478,0,0,0,-11,87,31,32.4,34.54,1018.14,1,0
2022-11-02 15:24:08,851,351,-478,0,0,0,-11,87,31,32.4,34.54,1018.14,1,0
2022-11-02 15:24:08,851,351,-478,0,0,0,-11,87,31,32.4,34.54,1018.14,1,0
2022-11-02 15:24:08,851,351,-478,0,0,0,-11,87,31,32.4,34.54,1018.14,1,0
2022-11-02 15:24:08,853,337,-466,0,0,0,-11,89,37,32.4,34.54,1018.14,1,0
2022-11-02 15:24:08,853,337,-466,0,0,0,-11,89,37,32.4,34.54,1018.14,1,0
2022-11-02 15:24:08,853,337,-466,0,0,0,-11,89,37,32.4,34.54,1018.14,1,0
2022-11-02 15:24:08,853,337,-466,0,0,0,-11,89,37,32.4,34.54,1018.14,1,0
2022-11-02 15:24:08,853,337,-466,0,0,0,-11,89,37,32.4,34.54,1018.14,1,0
2022-11-02 15:24:08,853,337,-466,0,0,0,-11,89,37,32.4,34.54,1018.14,1,0
2022-11-02 15:24:08,841,349,-474,0,0,0,-11,86,30,32.4,34.54,1018.14,1,0
2022-11-02 15:24:08,841,349,-474,0,0,0,-11,86,30,32.4,34.54,1018.14,1,0
2022-11-02 15:24:08,841,349,-474,0,0,0,-11,86,30,32.4,34.54,1018.14,1,0
2022-11-02 15:24:08,841,349,-474,0,0,0,-11,86,30,32.4,34.54,1018.14,1,0
2022-11-02 15:24:08,841,349,-474,0,0,0,-11,86,30,32.4,34.54,1018.14,1,0
2022-11-02 15:24:08,841,349,-474,0,0,0,-11,86,30,32.4,34.54,1018.14,1,0
2022-11-02 15:24:08,841,351,-478,0,0,0,-11,85,35,32.4,34.54,1018.14,1,0
2022-11-02 15:24:08,841,351,-478,0,0,0,-11,85,35,32.4,34.54,1018.14,1,0
2022-11-02 15:24:08,841,351,-478,0,0,0,-11,85,35,32.4,34.54,1018.14,1,0
2022-11-02 15:24:08,841,351,-478,0,0,0,-11,85,35,32.4,34.54,1018.14,1,0
2022-11-02 15:24:08,841,351,-478,0,0,0,-11,85,35,32.4,34.54,1018.14,1,0
2022-11-02 15:24:08,841,351,-478,0,0,0,-11,85,35,32.4,34.54,1018.14,1,0
2022-11-02 15:24:09,849,355,-468,-1,0,0,-12,86,39,32.4,34.54,1018.14,1,0
2022-11-02 15:24:09,849,355,-468,-1,0,0,-12,86,39,32.4,34.54,1018.14,1,0
2022-11-02 15:24:09,849,355,-468,-1,0,0,-12,86,39,32.4,34.54,1018.14,1,0
2022-11-02 15:24:09,849,355,-468,-1,0,0,-12,86,39,32.4,34.54,1018.14,1,0
2022-11-02 15:24:09,849,355,-468,-1,0,0,-12,86,39,32.4,34.54,1018.14,1,0
2022-11-02 15:24:09,849,355,-468,-1,0,0,-12,86,39,32.4,34.54,1018.14,1,0
2022-11-02 15:24:09,856,347,-474,0,0,0,-10,88,35,32.4,34.54,1018.14,1,0
2022-11-02 15:24:09,856,347,-474,0,0,0,-10,88,35,32.4,34.54,1018.14,1,0
2022-11-02 15:24:09,856,347,-474,0,0,0,-10,88,35,32.4,34.54,1018.14,1,0
2022-11-02 15:24:09,856,347,-474,0,0,0,-10,88,35,32.4,34.54,1018.14,1,0
2022-11-02 15:24:09,856,347,-474,0,0,0,-10,88,35,32.4,34.54,1018.14,1,0
2022-11-02 15:24:09,856,347,-474,0,0,0,-10,88,35,32.4,34.54,1018.14,1,0
2022-11-02 15:24:09,853,345,-474,1,0,0,-11,83,34,32.4,34.54,1018.14,1,0
2022-11-02 15:24:09,853,345,-474,1,0,0,-11,83,34,32.4,34.54,1018.14,1,0
2022-11-02 15:24:09,853,345,-474,1,0,0,-11,83,34,32.4,34.54,1018.14,1,0
2022-11-02 15:24:09,853,345,-474,1,0,0,-11,83,34,32.4,34.54,1018.14,1,0
2022-11-02 15:24:09,853,345,-474,1,0,0,-11,83,34,32.4,34.54,1018.14,1,0
2022-11-02 15:24:09,853,345,-474,1,0,0,-11,83,34,32.4,34.54,1018.14,1,0
2022-11-02 15:24:09,843,341,-464,0,0,0,-10,85,33,32.4,34.54,1018.14,1,0
2022-11-02 15:24:09,843,341,-464,0,0,0,-10,85,33,32.4,34.54,1018.14,1,0
2022-11-02 15:24:09,843,341,-464,0,0,0,-10,85,33,32.4,34.54,1018.14,1,0
2022-11-02 15:24:09,843,341,-464,0,0,0,-10,85,33,32.4,34.54,1018.14,1,0
2022-11-02 15:24:09,843,341,-464,0,0,0,-10,85,33,32.4,34.54,1018.14,1,0
2022-11-02 15:24:09,843,341,-464,0,0,0,-10,85,33,32.4,34.54,1018.14,1,0
2022-11-02 15:24:09,847,343,-478,0,0,0,-11,86,34,32.4,34.54,1018.14,1,0
2022-11-02 15:24:09,847,343,-478,0,0,0,-11,86,34,32.4,34.54,1018.14,1,0
2022-11-02 15:24:09,847,343,-478,0,0,0,-11,86,34,32.4,34.54,1018.14,1,0
2022-11-02 15:24:09,847,343,-478,0,0,0,-11,86,34,32.4,34.54,1018.14,1,0
2022-11-02 15:24:09,847,343,-478,0,0,0,-11,86,34,32.4,34.54,1018.14,1,0
2022-11-02 15:24:09,847,343,-478,0,0,0,-11,86,34,32.4,34.54,1018.14,1,0
2022-11-02 15:24:09,851,347,-476,0,0,0,-12,87,35,32.4,34.52,1018.1,1,0
2022-11-02 15:24:09,851,347,-476,0,0,0,-12,87,35,32.4,34.52,1018.1,1,0
2022-11-02 15:24:09,851,347,-476,0,0,0,-12,87,35,32.4,34.52,1018.1,1,0
2022-11-02 15:24:09,851,347,-476,0,0,0,-12,87,35,32.4,34.52,1018.1,1,0
2022-11-02 15:24:09,851,347,-476,0,0,0,-12,87,35,32.4,34.52,1018.1,1,0
2022-11-02 15:24:09,851,347,-476,0,0,0,-12,87,35,32.4,34.52,1018.1,1,0
2022-11-02 15:24:09,849,339,-484,0,0,0,-11,86,36,32.4,34.52,1018.1,1,0
2022-11-02 15:24:09,849,339,-484,0,0,0,-11,86,36,32.4,34.52,1018.1,1,0
2022-11-02 15:24:09,849,339,-484,0,0,0,-11,86,36,32.4,34.52,1018.1,1,0
2022-11-02 15:24:09,849,339,-484,0,0,0,-11,86,36,32.4,34.52,1018.1,1,0
2022-11-02 15:24:09,849,339,-484,0,0,0,-11,86,36,32.4,34.52,1018.1,1,0
2022-11-02 15:24:09,849,339,-484,0,0,0,-11,86,36,32.4,34.52,1018.1,1,0
2022-11-02 15:24:09,854,345,-466,0,0,0,-12,87,31,32.4,34.52,1018.1,1,0
2022-11-02 15:24:09,854,345,-466,0,0,0,-12,87,31,32.4,34.52,1018.1,1,0
2022-11-02 15:24:09,854,345,-466,0,0,0,-12,87,31,32.4,34.52,1018.1,1,0
2022-11-02 15:24:09,854,345,-466,0,0,0,-12,87,31,32.4,34.52,1018.1,1,0
2022-11-02 15:24:09,854,345,-466,0,0,0,-12,87,31,32.4,34.52,1018.1,1,0
2022-11-02 15:24:09,854,345,-466,0,0,0,-12,87,31,32.4,34.52,1018.1,1,0
2022-11-02 15:24:09,853,343,-474,0,0,0,-10,87,33,32.4,34.52,1018.1,1,0
2022-11-02 15:24:09,853,343,-474,0,0,0,-10,87,33,32.4,34.52,1018.1,1,0
2022-11-02 15:24:09,853,343,-474,0,0,0,-10,87,33,32.4,34.52,1018.1,1,0
2022-11-02 15:24:09,853,343,-474,0,0,0,-10,87,33,32.4,34.52,1018.1,1,0
2022-11-02 15:24:09,853,343,-474,0,0,0,-10,87,33,32.4,34.52,1018.1,1,0
2022-11-02 15:24:09,853,343,-474,0,0,0,-10,87,33,32.4,34.52,1018.1,1,0
2022-11-02 15:24:10,847,353,-476,-1,2,0,-9,85,36,32.4,34.52,1018.1,1,0
2022-11-02 15:24:10,847,353,-476,-1,2,0,-9,85,36,32.4,34.52,1018.1,1,0
2022-11-02 15:24:10,847,353,-476,-1,2,0,-9,85,36,32.4,34.52,1018.1,1,0
2022-11-02 15:24:10,847,353,-476,-1,2,0,-9,85,36,32.4,34.52,1018.1,1,0
2022-11-02 15:24:10,847,353,-476,-1,2,0,-9,85,36,32.4,34.52,1018.1,1,0
2022-11-02 15:24:10,847,353,-476,-1,2,0,-9,85,36,32.4,34.52,1018.1,1,0
2022-11-02 15:24:10,845,343,-462,-1,2,0,-10,85,39,32.4,34.52,1018.1,1,0
2022-11-02 15:24:10,845,343,-462,-1,2,0,-10,85,39,32.4,34.52,1018.1,1,0
2022-11-02 15:24:10,845,343,-462,-1,2,0,-10,85,39,32.4,34.52,1018.1,1,0
2022-11-02 15:24:10,845,343,-462,-1,2,0,-10,85,39,32.4,34.52,1018.1,1,0
2022-11-02 15:24:10,845,343,-462,-1,2,0,-10,85,39,32.4,34.52,1018.1,1,0
2022-11-02 15:24:10,845,343,-462,-1,2,0,-10,85,39,32.4,34.52,1018.1,1,0
2022-11-02 15:24:10,845,345,-470,0,1,0,-8,88,36,32.4,34.52,1018.1,1,0
2022-11-02 15:24:10,845,345,-470,0,1,0,-8,88,36,32.4,34.52,1018.1,1,0
2022-11-02 15:24:10,845,345,-470,0,1,0,-8,88,36,32.4,34.52,1018.1,1,0
2022-11-02 15:24:10,845,345,-470,0,1,0,-8,88,36,32.4,34.52,1018.1,1,0
2022-11-02 15:24:10,845,345,-470,0,1,0,-8,88,36,32.4,34.52,1018.1,1,0
2022-11-02 15:24:10,845,345,-470,0,1,0,-8,88,36,32.4,34.52,1018.1,1,0
2022-11-02 15:24:10,854,341,-468,0,1,0,-9,88,31,32.4,34.52,1018.1,1,0
2022-11-02 15:24:10,854,341,-468,0,1,0,-9,88,31,32.4,34.52,1018.1,1,0
2022-11-02 15:24:10,854,341,-468,0,1,0,-9,88,31,32.4,34.52,1018.1,1,0
2022-11-02 15:24:10,854,341,-468,0,1,0,-9,88,31,32.4,34.52,1018.1,1,0
2022-11-02 15:24:10,854,341,-468,0,1,0,-9,88,31,32.4,34.52,1018.1,1,0
2022-11-02 15:24:10,854,341,-468,0,1,0,-9,88,31,32.4,34.52,1018.1,1,0
2022-11-02 15:24:10,860,337,-456,0,0,0,-10,85,36,32.4,34.52,1018.1,1,0
2022-11-02 15:24:10,860,337,-456,0,0,0,-10,85,36,32.4,34.52,1018.1,1,0
2022-11-02 15:24:10,860,337,-456,0,0,0,-10,85,36,32.4,34.52,1018.1,1,0
2022-11-02 15:24:10,860,337,-456,0,0,0,-10,85,36,32.4,34.52,1018.1,1,0
2022-11-02 15:24:10,860,337,-456,0,0,0,-10,85,36,32.4,34.52,1018.1,1,0
2022-11-02 15:24:10,860,337,-456,0,0,0,-10,85,36,32.4,34.52,1018.1,1,0
2022-11-02 15:24:10,856,347,-460,0,0,0,-10,84,35,32.4,34.52,1018.1,1,0
2022-11-02 15:24:10,856,347,-460,0,0,0,-10,84,35,32.4,34.52,1018.1,1,0
2022-11-02 15:24:10,856,347,-460,0,0,0,-10,84,35,32.4,34.52,1018.1,1,0
2022-11-02 15:24:10,856,347,-460,0,0,0,-10,84,35,32.4,34.52,1018.1,1,0
2022-11-02 15:24:10,856,347,-460,0,0,0,-10,84,35,32.4,34.52,1018.1,1,0
2022-11-02 15:24:10,856,347,-460,0,0,0,-10,84,35,32.4,34.52,1018.1,1,0
2022-11-02 15:24:10,851,337,-454,0,0,0,-8,85,34,32.4,34.52,1018.2,1,0
2022-11-02 15:24:10,851,337,-454,0,0,0,-8,85,34,32.4,34.52,1018.2,1,0
2022-11-02 15:24:10,851,337,-454,0,0,0,-8,85,34,32.4,34.52,1018.2,1,0
2022-11-02 15:24:10,851,337,-454,0,0,0,-8,85,34,32.4,34.52,1018.2,1,0
2022-11-02 15:24:10,851,337,-454,0,0,0,-8,85,34,32.4,34.52,1018.2,1,0
2022-11-02 15:24:10,851,337,-454,0,0,0,-8,85,34,32.4,34.52,1018.2,1,0
2022-11-02 15:24:10,862,343,-464,0,0,0,-11,85,31,32.4,34.52,1018.2,1,0
2022-11-02 15:24:10,862,343,-464,0,0,0,-11,85,31,32.4,34.52,1018.2,1,0
2022-11-02 15:24:10,862,343,-464,0,0,0,-11,85,31,32.4,34.52,1018.2,1,0
2022-11-02 15:24:10,862,343,-464,0,0,0,-11,85,31,32.4,34.52,1018.2,1,0
2022-11-02 15:24:10,862,343,-464,0,0,0,-11,85,31,32.4,34.52,1018.2,1,0
2022-11-02 15:24:10,862,343,-464,0,0,0,-11,85,31,32.4,34.52,1018.2,1,0
2022-11-02 15:24:10,854,343,-464,0,0,0,-10,85,33,32.4,34.52,1018.2,1,0
2022-11-02 15:24:10,854,343,-464,0,0,0,-10,85,33,32.4,34.52,1018.2,1,0
2022-11-02 15:24:10,854,343,-464,0,0,0,-10,85,33,32.4,34.52,1018.2,1,0
2022-11-02 15:24:10,854,343,-464,0,0,0,-10,85,33,32.4,34.52,1018.2,1,0
2022-11-02 15:24:10,854,343,-464,0,0,0,-10,85,33,32.4,34.52,1018.2,1,0
2022-11-02 15:24:10,854,343,-464,0,0,0,-10,85,33,32.4,34.52,1018.2,1,0
2022-11-02 15:24:10,856,345,-454,0,0,0,-11,85,34,32.4,34.52,1018.2,1,0
2022-11-02 15:24:10,856,345,-454,0,0,0,-11,85,34,32.4,34.52,1018.2,1,0
2022-11-02 15:24:10,856,345,-454,0,0,0,-11,85,34,32.4,34.52,1018.2,1,0
2022-11-02 15:24:10,856,345,-454,0,0,0,-11,85,34,32.4,34.52,1018.2,1,0
2022-11-02 15:24:10,856,345,-454,0,0,0,-11,85,34,32.4,34.52,1018.2,1,0
2022-11-02 15:24:10,856,345,-454,0,0,0,-11,85,34,32.4,34.52,1018.2,1,0
2022-11-02 15:24:10,862,351,-466,0,0,0,-10,85,33,32.4,34.52,1018.2,1,0
2022-11-02 15:24:10,862,351,-466,0,0,0,-10,85,33,32.4,34.52,1018.2,1,0
2022-11-02 15:24:10,862,351,-466,0,0,0,-10,85,33,32.4,34.52,1018.2,1,0
2022-11-02 15:24:10,862,351,-466,0,0,0,-10,85,33,32.4,34.52,1018.2,1,0
2022-11-02 15:24:10,862,351,-466,0,0,0,-10,85,33,32.4,34.52,1018.2,1,0
2022-11-02 15:24:10,862,351,-466,0,0,0,-10,85,33,32.4,34.52,1018.2,1,0
2022-11-02 15:24:11,854,343,-474,0,-1,0,-10,86,34,32.4,34.52,1018.2,1,0
2022-11-02 15:24:11,854,343,-474,0,-1,0,-10,86,34,32.4,34.52,1018.2,1,0
2022-11-02 15:24:11,854,343,-474,0,-1,0,-10,86,34,32.4,34.52,1018.2,1,0
2022-11-02 15:24:11,854,343,-474,0,-1,0,-10,86,34,32.4,34.52,1018.2,1,0
2022-11-02 15:24:11,854,343,-474,0,-1,0,-10,86,34,32.4,34.52,1018.2,1,0
2022-11-02 15:24:11,854,343,-474,0,-1,0,-10,86,34,32.4,34.52,1018.2,1,0
2022-11-02 15:24:11,847,347,-466,0,0,0,-10,86,32,32.4,34.52,1018.2,1,0
2022-11-02 15:24:11,847,347,-466,0,0,0,-10,86,32,32.4,34.52,1018.2,1,0
2022-11-02 15:24:11,847,347,-466,0,0,0,-10,86,32,32.4,34.52,1018.2,1,0
2022-11-02 15:24:11,847,347,-466,0,0,0,-10,86,32,32.4,34.52,1018.2,1,0
2022-11-02 15:24:11,847,347,-466,0,0,0,-10,86,32,32.4,34.52,1018.2,1,0
2022-11-02 15:24:11,847,347,-466,0,0,0,-10,86,32,32.4,34.52,1018.2,1,0
2022-11-02 15:24:11,851,347,-472,0,0,0,-11,86,34,32.4,34.52,1018.2,1,0
2022-11-02 15:24:11,851,347,-472,0,0,0,-11,86,34,32.4,34.52,1018.2,1,0
2022-11-02 15:24:11,851,347,-472,0,0,0,-11,86,34,32.4,34.52,1018.2,1,0
2022-11-02 15:24:11,851,347,-472,0,0,0,-11,86,34,32.4,34.52,1018.2,1,0
2022-11-02 15:24:11,851,347,-472,0,0,0,-11,86,34,32.4,34.52,1018.2,1,0
2022-11-02 15:24:11,851,347,-472,0,0,0,-11,86,34,32.4,34.52,1018.2,1,0
2022-11-02 15:24:11,851,339,-476,0,0,0,-8,87,39,32.4,34.52,1018.2,1,0
2022-11-02 15:24:11,851,339,-476,0,0,0,-8,87,39,32.4,34.52,1018.2,1,0
2022-11-02 15:24:11,851,339,-476,0,0,0,-8,87,39,32.4,34.52,1018.2,1,0
2022-11-02 15:24:11,851,339,-476,0,0,0,-8,87,39,32.4,34.52,1018.2,1,0
2022-11-02 15:24:11,851,339,-476,0,0,0,-8,87,39,32.4,34.52,1018.2,1,0
2022-11-02 15:24:11,851,339,-476,0,0,0,-8,87,39,32.4,34.52,1018.2,1,0
2022-11-02 15:24:11,851,351,-468,0,0,0,-14,85,39,32.4,34.52,1018.2,1,0
2022-11-02 15:24:11,851,351,-468,0,0,0,-14,85,39,32.4,34.52,1018.2,1,0
2022-11-02 15:24:11,851,351,-468,0,0,0,-14,85,39,32.4,34.52,1018.2,1,0
2022-11-02 15:24:11,851,351,-468,0,0,0,-14,85,39,32.4,34.52,1018.2,1,0
2022-11-02 15:24:11,851,351,-468,0,0,0,-14,85,39,32.4,34.52,1018.2,1,0
2022-11-02 15:24:11,851,351,-468,0,0,0,-14,85,39,32.4,34.52,1018.2,1,0
2022-11-02 15:24:11,851,345,-480,0,0,0,-12,85,26,32.4,34.52,1018.16,1,0
2022-11-02 15:24:11,851,345,-480,0,0,0,-12,85,26,32.4,34.52,1018.16,1,0
2022-11-02 15:24:11,851,345,-480,0,0,0,-12,85,26,32.4,34.52,1018.16,1,0
2022-11-02 15:24:11,851,345,-480,0,0,0,-12,85,26,32.4,34.52,1018.16,1,0
2022-11-02 15:24:11,851,345,-480,0,0,0,-12,85,26,32.4,34.52,1018.16,1,0
2022-11-02 15:24:11,851,345,-480,0,0,0,-12,85,26,32.4,34.52,1018.16,1,0
2022-11-02 15:24:11,849,343,-486,0,0,0,-10,86,32,32.4,34.52,1018.16,1,0
2022-11-02 15:24:11,849,343,-486,0,0,0,-10,86,32,32.4,34.52,1018.16,1,0
2022-11-02 15:24:11,849,343,-486,0,0,0,-10,86,32,32.4,34.52,1018.16,1,0
2022-11-02 15:24:11,849,343,-486,0,0,0,-10,86,32,32.4,34.52,1018.16,1,0
2022-11-02 15:24:11,849,343,-486,0,0,0,-10,86,32,32.4,34.52,1018.16,1,0
2022-11-02 15:24:11,849,343,-486,0,0,0,-10,86,32,32.4,34.52,1018.16,1,0
2022-11-02 15:24:11,845,349,-474,0,0,0,-12,86,32,32.4,34.52,1018.16,1,0
2022-11-02 15:24:11,845,349,-474,0,0,0,-12,86,32,32.4,34.52,1018.16,1,0
2022-11-02 15:24:11,845,349,-474,0,0,0,-12,86,32,32.4,34.52,1018.16,1,0
2022-11-02 15:24:11,845,349,-474,0,0,0,-12,86,32,32.4,34.52,1018.16,1,0
2022-11-02 15:24:11,845,349,-474,0,0,0,-12,86,32,32.4,34.52,1018.16,1,0
2022-11-02 15:24:11,845,349,-474,0,0,0,-12,86,32,32.4,34.52,1018.16,1,0
2022-11-02 15:24:11,847,353,-476,0,0,0,-12,86,34,32.4,34.52,1018.16,1,0
2022-11-02 15:24:11,847,353,-476,0,0,0,-12,86,34,32.4,34.52,1018.16,1,0
2022-11-02 15:24:11,847,353,-476,0,0,0,-12,86,34,32.4,34.52,1018.16,1,0
2022-11-02 15:24:11,847,353,-476,0,0,0,-12,86,34,32.4,34.52,1018.16,1,0
2022-11-02 15:24:11,847,353,-476,0,0,0,-12,86,34,32.4,34.52,1018.16,1,0
2022-11-02 15:24:11,847,353,-476,0,0,0,-12,86,34,32.4,34.52,1018.16,1,0
2022-11-02 15:24:11,835,351,-476,0,0,0,-11,86,38,32.4,34.52,1018.16,1,0
2022-11-02 15:24:11,835,351,-476,0,0,0,-11,86,38,32.4,34.52,1018.16,1,0
2022-11-02 15:24:11,835,351,-476,0,0,0,-11,86,38,32.4,34.52,1018.16,1,0
2022-11-02 15:24:11,835,351,-476,0,0,0,-11,86,38,32.4,34.52,1018.16,1,0
2022-11-02 15:24:11,835,351,-476,0,0,0,-11,86,38,32.4,34.52,1018.16,1,0
2022-11-02 15:24:11,835,351,-476,0,0,0,-11,86,38,32.4,34.52,1018.16,1,0
2022-11-02 15:24:12,841,353,-476,0,0,0,-9,86,32,32.4,34.52,1018.16,1,0
2022-11-02 15:24:12,841,353,-476,0,0,0,-9,86,32,32.4,34.52,1018.16,1,0
2022-11-02 15:24:12,841,353,-476,0,0,0,-9,86,32,32.4,34.52,1018.16,1,0
2022-11-02 15:24:12,841,353,-476,0,0,0,-9,86,32,32.4,34.52,1018.16,1,0
2022-11-02 15:24:12,841,353,-476,0,0,0,-9,86,32,32.4,34.52,1018.16,1,0
2022-11-02 15:24:12,841,353,-476,0,0,0,-9,86,32,32.4,34.52,1018.16,1,0
2022-11-02 15:24:12,851,347,-480,0,1,0,-11,84,31,32.4,34.52,1018.16,1,0
2022-11-02 15:24:12,851,347,-480,0,1,0,-11,84,31,32.4,34.52,1018.16,1,0
2022-11-02 15:24:12,851,347,-480,0,1,0,-11,84,31,32.4,34.52,1018.16,1,0
2022-11-02 15:24:12,851,347,-480,0,1,0,-11,84,31,32.4,34.52,1018.16,1,0
2022-11-02 15:24:12,851,347,-480,0,1,0,-11,84,31,32.4,34.52,1018.16,1,0
2022-11-02 15:24:12,851,347,-480,0,1,0,-11,84,31,32.4,34.52,1018.16,1,0
2022-11-02 15:24:12,854,351,-478,0,1,0,-10,84,41,32.4,34.52,1018.16,1,0
2022-11-02 15:24:12,854,351,-478,0,1,0,-10,84,41,32.4,34.52,1018.16,1,0
2022-11-02 15:24:12,854,351,-478,0,1,0,-10,84,41,32.4,34.52,1018.16,1,0
2022-11-02 15:24:12,854,351,-478,0,1,0,-10,84,41,32.4,34.52,1018.16,1,0
2022-11-02 15:24:12,854,351,-478,0,1,0,-10,84,41,32.4,34.52,1018.16,1,0
2022-11-02 15:24:12,854,351,-478,0,1,0,-10,84,41,32.4,34.52,1018.16,1,0
2022-11-02 15:24:12,845,341,-474,0,1,0,-12,86,37,32.4,34.52,1018.16,1,0
2022-11-02 15:24:12,845,341,-474,0,1,0,-12,86,37,32.4,34.52,1018.16,1,0
2022-11-02 15:24:12,845,341,-474,0,1,0,-12,86,37,32.4,34.52,1018.16,1,0
2022-11-02 15:24:12,845,341,-474,0,1,0,-12,86,37,32.4,34.52,1018.16,1,0
2022-11-02 15:24:12,845,341,-474,0,1,0,-12,86,37,32.4,34.52,1018.16,1,0
2022-11-02 15:24:12,845,341,-474,0,1,0,-12,86,37,32.4,34.52,1018.16,1,0
2022-11-02 15:24:12,851,343,-468,0,1,0,-11,86,38,32.4,34.52,1018.16,1,0
2022-11-02 15:24:12,851,343,-468,0,1,0,-11,86,38,32.4,34.52,1018.16,1,0
2022-11-02 15:24:12,851,343,-468,0,1,0,-11,86,38,32.4,34.52,1018.16,1,0
2022-11-02 15:24:12,851,343,-468,0,1,0,-11,86,38,32.4,34.52,1018.16,1,0
2022-11-02 15:24:12,851,343,-468,0,1,0,-11,86,38,32.4,34.52,1018.16,1,0
2022-11-02 15:24:12,851,343,-468,0,1,0,-11,86,38,32.4,34.52,1018.16,1,0
2022-11-02 15:24:12,849,341,-462,0,1,0,-9,86,31,32.4,34.52,1018.17,1,0
2022-11-02 15:24:12,849,341,-462,0,1,0,-9,86,31,32.4,34.52,1018.17,1,0
2022-11-02 15:24:12,849,341,-462,0,1,0,-9,86,31,32.4,34.52,1018.17,1,0
2022-11-02 15:24:12,849,341,-462,0,1,0,-9,86,31,32.4,34.52,1018.17,1,0
2022-11-02 15:24:12,849,341,-462,0,1,0,-9,86,31,32.4,34.52,1018.17,1,0
2022-11-02 15:24:12,849,341,-462,0,1,0,-9,86,31,32.4,34.52,1018.17,1,0
2022-11-02 15:24:12,853,343,-464,0,1,0,-11,88,33,32.4,34.52,1018.17,1,0
2022-11-02 15:24:12,853,343,-464,0,1,0,-11,88,33,32.4,34.52,1018.17,1,0
2022-11-02 15:24:12,853,343,-464,0,1,0,-11,88,33,32.4,34.52,1018.17,1,0
2022-11-02 15:24:12,853,343,-464,0,1,0,-11,88,33,32.4,34.52,1018.17,1,0
2022-11-02 15:24:12,853,343,-464,0,1,0,-11,88,33,32.4,34.52,1018.17,1,0
2022-11-02 15:24:12,853,343,-464,0,1,0,-11,88,33,32.4,34.52,1018.17,1,0
2022-11-02 15:24:12,854,347,-468,0,0,0,-10,88,33,32.4,34.52,1018.17,1,0
2022-11-02 15:24:12,854,347,-468,0,0,0,-10,88,33,32.4,34.52,1018.17,1,0
2022-11-02 15:24:12,854,347,-468,0,0,0,-10,88,33,32.4,34.52,1018.17,1,0
2022-11-02 15:24:12,854,347,-468,0,0,0,-10,88,33,32.4,34.52,1018.17,1,0
2022-11-02 15:24:12,854,347,-468,0,0,0,-10,88,33,32.4,34.52,1018.17,1,0
2022-11-02 15:24:12,854,347,-468,0,0,0,-10,88,33,32.4,34.52,1018.17,1,0
2022-11-02 15:24:12,853,345,-460,0,0,0,-10,86,33,32.4,34.52,1018.17,1,0
2022-11-02 15:24:12,853,345,-460,0,0,0,-10,86,33,32.4,34.52,1018.17,1,0
2022-11-02 15:24:12,853,345,-460,0,0,0,-10,86,33,32.4,34.52,1018.17,1,0
2022-11-02 15:24:12,853,345,-460,0,0,0,-10,86,33,32.4,34.52,1018.17,1,0
2022-11-02 15:24:12,853,345,-460,0,0,0,-10,86,33,32.4,34.52,1018.17,1,0
2022-11-02 15:24:12,853,345,-460,0,0,0,-10,86,33,32.4,34.52,1018.17,1,0
2022-11-02 15:24:12,860,343,-470,0,0,0,-8,89,32,32.4,34.52,1018.17,1,0
2022-11-02 15:24:12,860,343,-470,0,0,0,-8,89,32,32.4,34.52,1018.17,1,0
2022-11-02 15:24:12,860,343,-470,0,0,0,-8,89,32,32.4,34.52,1018.17,1,0
2022-11-02 15:24:12,860,343,-470,0,0,0,-8,89,32,32.4,34.52,1018.17,1,0
2022-11-02 15:24:12,860,343,-470,0,0,0,-8,89,32,32.4,34.52,1018.17,1,0
2022-11-02 15:24:12,860,343,-470,0,0,0,-8,89,32,32.4,34.52,1018.17,1,0
2022-11-02 15:24:13,851,353,-468,-1,0,0,-10,87,33,32.4,34.52,1018.17,1,0
2022-11-02 15:24:13,851,353,-468,-1,0,0,-10,87,33,32.4,34.52,1018.17,1,0
2022-11-02 15:24:13,851,353,-468,-1,0,0,-10,87,33,32.4,34.52,1018.17,1,0
2022-11-02 15:24:13,851,353,-468,-1,0,0,-10,87,33,32.4,34.52,1018.17,1,0
2022-11-02 15:24:13,851,353,-468,-1,0,0,-10,87,33,32.4,34.52,1018.17,1,0
2022-11-02 15:24:13,851,353,-468,-1,0,0,-10,87,33,32.4,34.52,1018.17,1,0
2022-11-02 15:24:13,854,343,-456,0,0,0,-11,85,36,32.4,34.52,1018.17,1,0
2022-11-02 15:24:13,854,343,-456,0,0,0,-11,85,36,32.4,34.52,1018.17,1,0
2022-11-02 15:24:13,854,343,-456,0,0,0,-11,85,36,32.4,34.52,1018.17,1,0
2022-11-02 15:24:13,854,343,-456,0,0,0,-11,85,36,32.4,34.52,1018.17,1,0
2022-11-02 15:24:13,854,343,-456,0,0,0,-11,85,36,32.4,34.52,1018.17,1,0
2022-11-02 15:24:13,854,343,-456,0,0,0,-11,85,36,32.4,34.52,1018.17,1,0
2022-11-02 15:24:13,853,345,-468,0,0,0,-10,86,37,32.4,34.52,1018.17,1,0
2022-11-02 15:24:13,853,345,-468,0,0,0,-10,86,37,32.4,34.52,1018.17,1,0
2022-11-02 15:24:13,853,345,-468,0,0,0,-10,86,37,32.4,34.52,1018.17,1,0
2022-11-02 15:24:13,853,345,-468,0,0,0,-10,86,37,32.4,34.52,1018.17,1,0
2022-11-02 15:24:13,853,345,-468,0,0,0,-10,86,37,32.4,34.52,1018.17,1,0
2022-11-02 15:24:13,853,345,-468,0,0,0,-10,86,37,32.4,34.52,1018.17,1,0
2022-11-02 15:24:13,853,343,-474,0,0,0,-9,87,28,32.4,34.52,1018.17,1,0
2022-11-02 15:24:13,853,343,-474,0,0,0,-9,87,28,32.4,34.52,1018.17,1,0
2022-11-02 15:24:13,853,343,-474,0,0,0,-9,87,28,32.4,34.52,1018.17,1,0
2022-11-02 15:24:13,853,343,-474,0,0,0,-9,87,28,32.4,34.52,1018.17,1,0
2022-11-02 15:24:13,853,343,-474,0,0,0,-9,87,28,32.4,34.52,1018.17,1,0
2022-11-02 15:24:13,853,343,-474,0,0,0,-9,87,28,32.4,34.52,1018.17,1,0
2022-11-02 15:24:13,851,343,-472,0,0,0,-9,86,31,32.4,34.52,1018.17,1,0
2022-11-02 15:24:13,851,343,-472,0,0,0,-9,86,31,32.4,34.52,1018.17,1,0
2022-11-02 15:24:13,851,343,-472,0,0,0,-9,86,31,32.4,34.52,1018.17,1,0
