Time,Ax,Ay,Az,Gx,Gy,Gz,Mx,My,Mz,Temp,Humidity,Pressure,Mic,Light
2022-11-02 15:49:13,1007,66,-212,0,0,0,-5,4,-23,34.3,36.19,1018.24,0,0
2022-11-02 15:49:13,1007,66,-212,0,0,0,-5,4,-23,34.3,36.19,1018.24,0,0
2022-11-02 15:49:13,1007,66,-212,0,0,0,-5,4,-23,34.3,36.19,1018.24,0,0
2022-11-02 15:49:13,1007,66,-212,0,0,0,-5,4,-23,34.3,36.19,1018.24,0,0
2022-11-02 15:49:13,1007,66,-212,0,0,0,-5,4,-23,34.3,36.19,1018.24,0,0
2022-11-02 15:49:13,1007,66,-212,0,0,0,-5,4,-23,34.3,36.19,1018.24,0,0
2022-11-02 15:49:13,1007,66,-212,0,0,0,-5,4,-23,34.3,36.19,1018.24,0,0
2022-11-02 15:49:13,1007,66,-212,0,0,0,-5,4,-23,34.3,36.19,1018.24,0,0
2022-11-02 15:49:13,1007,66,-212,0,0,0,-5,4,-23,34.3,36.19,1018.24,0,0
2022-11-02 15:49:13,1007,66,-212,0,0,0,-5,4,-23,34.3,36.19,1018.24,0,0
2022-11-02 15:49:13,989,78,-240,0,0,1,-7,5,-28,34.2,36.8,1018.25,0,0
2022-11-02 15:49:13,989,78,-240,0,0,1,-7,5,-28,34.2,36.8,1018.25,0,0
2022-11-02 15:49:13,989,78,-240,0,0,1,-7,5,-28,34.2,36.8,1018.25,0,0
2022-11-02 15:49:13,989,78,-240,0,0,1,-7,5,-28,34.2,36.8,1018.25,0,0
2022-11-02 15:49:13,989,78,-240,0,0,1,-7,5,-28,34.2,36.8,1018.25,0,0
2022-11-02 15:49:13,989,78,-240,0,0,1,-7,5,-28,34.2,36.8,1018.25,0,0
2022-11-02 15:49:13,989,78,-240,0,0,1,-7,5,-28,34.2,36.8,1018.25,0,0
2022-11-02 15:49:13,989,78,-240,0,0,1,-7,5,-28,34.2,36.8,1018.25,0,0
2022-11-02 15:49:13,989,78,-240,0,0,1,-7,5,-28,34.2,36.8,1018.25,0,0
2022-11-02 15:49:13,989,78,-240,0,0,1,-7,5,-28,34.2,36.8,1018.25,0,0
2022-11-02 15:49:13,995,66,-228,0,0,0,-8,3,-26,34.2,36.8,1018.25,0,0
2022-11-02 15:49:13,995,66,-228,0,0,0,-8,3,-26,34.2,36.8,1018.25,0,0
2022-11-02 15:49:13,995,66,-228,0,0,0,-8,3,-26,34.2,36.8,1018.25,0,0
2022-11-02 15:49:13,995,66,-228,0,0,0,-8,3,-26,34.2,36.8,1018.25,0,0
2022-11-02 15:49:13,995,66,-228,0,0,0,-8,3,-26,34.2,36.8,1018.25,0,0
2022-11-02 15:49:13,995,66,-228,0,0,0,-8,3,-26,34.2,36.8,1018.25,0,0
2022-11-02 15:49:13,995,66,-228,0,0,0,-8,3,-26,34.2,36.8,1018.25,0,0
2022-11-02 15:49:13,995,66,-228,0,0,0,-8,3,-26,34.2,36.8,1018.25,0,0
2022-11-02 15:49:13,995,66,-228,0,0,0,-8,3,-26,34.2,36.8,1018.25,0,0
2022-11-02 15:49:13,995,66,-228,0,0,0,-8,3,-26,34.2,36.8,1018.25,0,0
2022-11-02 15:49:13,989,78,-228,0,0,0,-5,3,-24,34.2,36.8,1018.25,0,0
2022-11-02 15:49:13,989,78,-228,0,0,0,-5,3,-24,34.2,36.8,1018.25,0,0
2022-11-02 15:49:13,989,78,-228,0,0,0,-5,3,-24,34.2,36.8,1018.25,0,0
2022-11-02 15:49:13,989,78,-228,0,0,0,-5,3,-24,34.2,36.8,1018.25,0,0
2022-11-02 15:49:13,989,78,-228,0,0,0,-5,3,-24,34.2,36.8,1018.25,0,0
2022-11-02 15:49:13,989,78,-228,0,0,0,-5,3,-24,34.2,36.8,1018.25,0,0
2022-11-02 15:49:13,989,78,-228,0,0,0,-5,3,-24,34.2,36.8,1018.25,0,0
2022-11-02 15:49:13,989,78,-228,0,0,0,-5,3,-24,34.2,36.8,1018.25,0,0
2022-11-02 15:49:13,989,78,-228,0,0,0,-5,3,-24,34.2,36.8,1018.25,0,0
2022-11-02 15:49:13,989,78,-228,0,0,0,-5,3,-24,34.2,36.8,1018.25,0,0
2022-11-02 15:49:13,991,56,-234,0,0,0,-7,4,-23,34.2,36.8,1018.25,0,0
2022-11-02 15:49:13,991,56,-234,0,0,0,-7,4,-23,34.2,36.8,1018.25,0,0
2022-11-02 15:49:13,991,56,-234,0,0,0,-7,4,-23,34.2,36.8,1018.25,0,0
2022-11-02 15:49:13,991,56,-234,0,0,0,-7,4,-23,34.2,36.8,1018.25,0,0
2022-11-02 15:49:13,991,56,-234,0,0,0,-7,4,-23,34.2,36.8,1018.25,0,0
2022-11-02 15:49:13,991,56,-234,0,0,0,-7,4,-23,34.2,36.8,1018.25,0,0
2022-11-02 15:49:13,991,56,-234,0,0,0,-7,4,-23,34.2,36.8,1018.25,0,0
2022-11-02 15:49:13,991,56,-234,0,0,0,-7,4,-23,34.2,36.8,1018.25,0,0
2022-11-02 15:49:13,991,56,-234,0,0,0,-7,4,-23,34.2,36.8,1018.25,0,0
2022-11-02 15:49:13,991,56,-234,0,0,0,-7,4,-23,34.2,36.8,1018.25,0,0
2022-11-02 15:49:13,995,78,-228,0,-1,0,-6,3,-25,34.2,36.8,1018.25,0,0
2022-11-02 15:49:13,995,78,-228,0,-1,0,-6,3,-25,34.2,36.8,1018.25,0,0
2022-11-02 15:49:13,995,78,-228,0,-1,0,-6,3,-25,34.2,36.8,1018.25,0,0
2022-11-02 15:49:13,995,78,-228,0,-1,0,-6,3,-25,34.2,36.8,1018.25,0,0
2022-11-02 15:49:13,995,78,-228,0,-1,0,-6,3,-25,34.2,36.8,1018.25,0,0
2022-11-02 15:49:13,995,78,-228,0,-1,0,-6,3,-25,34.2,36.8,1018.25,0,0
2022-11-02 15:49:13,995,78,-228,0,-1,0,-6,3,-25,34.2,36.8,1018.25,0,0
2022-11-02 15:49:13,995,78,-228,0,-1,0,-6,3,-25,34.2,36.8,1018.25,0,0
2022-11-02 15:49:13,995,78,-228,0,-1,0,-6,3,-25,34.2,36.8,1018.25,0,0
2022-11-02 15:49:13,995,78,-228,0,-1,0,-6,3,-25,34.2,36.8,1018.25,0,0
2022-11-02 15:49:13,991,74,-240,0,0,0,-7,4,-27,34.2,36.8,1018.25,0,0
2022-11-02 15:49:13,991,74,-240,0,0,0,-7,4,-27,34.2,36.8,1018.25,0,0
2022-11-02 15:49:13,991,74,-240,0,0,0,-7,4,-27,34.2,36.8,1018.25,0,0
2022-11-02 15:49:13,991,74,-240,0,0,0,-7,4,-27,34.2,36.8,1018.25,0,0
2022-11-02 15:49:13,991,74,-240,0,0,0,-7,4,-27,34.2,36.8,1018.25,0,0
2022-11-02 15:49:13,991,74,-240,0,0,0,-7,4,-27,34.2,36.8,1018.25,0,0
2022-11-02 15:49:13,991,74,-240,0,0,0,-7,4,-27,34.2,36.8,1018.25,0,0
2022-11-02 15:49:13,991,74,-240,0,0,0,-7,4,-27,34.2,36.8,1018.25,0,0
2022-11-02 15:49:13,991,74,-240,0,0,0,-7,4,-27,34.2,36.8,1018.25,0,0
2022-11-02 15:49:13,991,74,-240,0,0,0,-7,4,-27,34.2,36.8,1018.25,0,0
2022-11-02 15:49:13,995,74,-228,0,0,0,-5,5,-25,34.2,36.8,1018.25,0,0
2022-11-02 15:49:13,995,74,-228,0,0,0,-5,5,-25,34.2,36.8,1018.25,0,0
2022-11-02 15:49:13,995,74,-228,0,0,0,-5,5,-25,34.2,36.8,1018.25,0,0
2022-11-02 15:49:13,995,74,-228,0,0,0,-5,5,-25,34.2,36.8,1018.25,0,0
2022-11-02 15:49:13,995,74,-228,0,0,0,-5,5,-25,34.2,36.8,1018.25,0,0
2022-11-02 15:49:13,995,74,-228,0,0,0,-5,5,-25,34.2,36.8,1018.25,0,0
2022-11-02 15:49:13,995,74,-228,0,0,0,-5,5,-25,34.2,36.8,1018.25,0,0
2022-11-02 15:49:13,995,74,-228,0,0,0,-5,5,-25,34.2,36.8,1018.25,0,0
2022-11-02 15:49:13,995,74,-228,0,0,0,-5,5,-25,34.2,36.8,1018.25,0,0
2022-11-02 15:49:13,995,74,-228,0,0,0,-5,5,-25,34.2,36.8,1018.25,0,0
2022-11-02 15:49:13,995,78,-238,0,0,0,-4,5,-25,34.2,36.8,1018.25,0,0
2022-11-02 15:49:13,995,78,-238,0,0,0,-4,5,-25,34.2,36.8,1018.25,0,0
2022-11-02 15:49:13,995,78,-238,0,0,0,-4,5,-25,34.2,36.8,1018.25,0,0
2022-11-02 15:49:13,995,78,-238,0,0,0,-4,5,-25,34.2,36.8,1018.25,0,0
2022-11-02 15:49:13,995,78,-238,0,0,0,-4,5,-25,34.2,36.8,1018.25,0,0
2022-11-02 15:49:13,995,78,-238,0,0,0,-4,5,-25,34.2,36.8,1018.25,0,0
2022-11-02 15:49:13,995,78,-238,0,0,0,-4,5,-25,34.2,36.8,1018.25,0,0
2022-11-02 15:49:13,995,78,-238,0,0,0,-4,5,-25,34.2,36.8,1018.25,0,0
2022-11-02 15:49:13,995,78,-238,0,0,0,-4,5,-25,34.2,36.8,1018.25,0,0
2022-11-02 15:49:13,995,78,-238,0,0,0,-4,5,-25,34.2,36.8,1018.25,0,0
2022-11-02 15:49:14,997,64,-230,0,1,1,-6,3,-23,34.2,36.8,1018.25,0,0
2022-11-02 15:49:14,997,64,-230,0,1,1,-6,3,-23,34.2,36.8,1018.25,0,0
2022-11-02 15:49:14,997,64,-230,0,1,1,-6,3,-23,34.2,36.8,1018.25,0,0
2022-11-02 15:49:14,997,64,-230,0,1,1,-6,3,-23,34.2,36.8,1018.25,0,0
2022-11-02 15:49:14,997,64,-230,0,1,1,-6,3,-23,34.2,36.8,1018.25,0,0
2022-11-02 15:49:14,997,64,-230,0,1,1,-6,3,-23,34.2,36.8,1018.25,0,0
2022-11-02 15:49:14,997,64,-230,0,1,1,-6,3,-23,34.2,36.8,1018.25,0,0
2022-11-02 15:49:14,997,64,-230,0,1,1,-6,3,-23,34.2,36.8,1018.25,0,0
2022-11-02 15:49:14,997,64,-230,0,1,1,-6,3,-23,34.2,36.8,1018.25,0,0
2022-11-02 15:49:14,997,64,-230,0,1,1,-6,3,-23,34.2,36.8,1018.25,0,0
2022-11-02 15:49:14,985,64,-230,0,0,1,-7,4,-27,34.2,36.8,1018.25,0,0
2022-11-02 15:49:14,985,64,-230,0,0,1,-7,4,-27,34.2,36.8,1018.25,0,0
2022-11-02 15:49:14,985,64,-230,0,0,1,-7,4,-27,34.2,36.8,1018.25,0,0
2022-11-02 15:49:14,985,64,-230,0,0,1,-7,4,-27,34.2,36.8,1018.25,0,0
2022-11-02 15:49:14,985,64,-230,0,0,1,-7,4,-27,34.2,36.8,1018.25,0,0
2022-11-02 15:49:14,985,64,-230,0,0,1,-7,4,-27,34.2,36.8,1018.25,0,0
2022-11-02 15:49:14,985,64,-230,0,0,1,-7,4,-27,34.2,36.8,1018.25,0,0
2022-11-02 15:49:14,985,64,-230,0,0,1,-7,4,-27,34.2,36.8,1018.25,0,0
2022-11-02 15:49:14,985,64,-230,0,0,1,-7,4,-27,34.2,36.8,1018.25,0,0
2022-11-02 15:49:14,985,64,-230,0,0,1,-7,4,-27,34.2,36.8,1018.25,0,0
2022-11-02 15:49:14,1001,66,-232,0,0,0,-7,3,-20,34.2,36.78,1018.24,0,0
2022-11-02 15:49:14,1001,66,-232,0,0,0,-7,3,-20,34.2,36.78,1018.24,0,0
2022-11-02 15:49:14,1001,66,-232,0,0,0,-7,3,-20,34.2,36.78,1018.24,0,0
2022-11-02 15:49:14,1001,66,-232,0,0,0,-7,3,-20,34.2,36.78,1018.24,0,0
2022-11-02 15:49:14,1001,66,-232,0,0,0,-7,3,-20,34.2,36.78,1018.24,0,0
2022-11-02 15:49:14,1001,66,-232,0,0,0,-7,3,-20,34.2,36.78,1018.24,0,0
2022-11-02 15:49:14,1001,66,-232,0,0,0,-7,3,-20,34.2,36.78,1018.24,0,0
2022-11-02 15:49:14,1001,66,-232,0,0,0,-7,3,-20,34.2,36.78,1018.24,0,0
2022-11-02 15:49:14,1001,66,-232,0,0,0,-7,3,-20,34.2,36.78,1018.24,0,0
2022-11-02 15:49:14,1001,66,-232,0,0,0,-7,3,-20,34.2,36.78,1018.24,0,0
2022-11-02 15:49:14,989,70,-232,0,1,0,-6,5,-26,34.2,36.78,1018.24,0,0
2022-11-02 15:49:14,989,70,-232,0,1,0,-6,5,-26,34.2,36.78,1018.24,0,0
2022-11-02 15:49:14,989,70,-232,0,1,0,-6,5,-26,34.2,36.78,1018.24,0,0
2022-11-02 15:49:14,989,70,-232,0,1,0,-6,5,-26,34.2,36.78,1018.24,0,0
2022-11-02 15:49:14,989,70,-232,0,1,0,-6,5,-26,34.2,36.78,1018.24,0,0
2022-11-02 15:49:14,989,70,-232,0,1,0,-6,5,-26,34.2,36.78,1018.24,0,0
2022-11-02 15:49:14,989,70,-232,0,1,0,-6,5,-26,34.2,36.78,1018.24,0,0
2022-11-02 15:49:14,989,70,-232,0,1,0,-6,5,-26,34.2,36.78,1018.24,0,0
2022-11-02 15:49:14,989,70,-232,0,1,0,-6,5,-26,34.2,36.78,1018.24,0,0
2022-11-02 15:49:14,989,70,-232,0,1,0,-6,5,-26,34.2,36.78,1018.24,0,0
2022-11-02 15:49:14,1007,72,-218,1,2,0,-4,5,-29,34.2,36.78,1018.24,0,0
2022-11-02 15:49:14,1007,72,-218,1,2,0,-4,5,-29,34.2,36.78,1018.24,0,0
2022-11-02 15:49:14,1007,72,-218,1,2,0,-4,5,-29,34.2,36.78,1018.24,0,0
2022-11-02 15:49:14,1007,72,-218,1,2,0,-4,5,-29,34.2,36.78,1018.24,0,0
2022-11-02 15:49:14,1007,72,-218,1,2,0,-4,5,-29,34.2,36.78,1018.24,0,0
2022-11-02 15:49:14,1007,72,-218,1,2,0,-4,5,-29,34.2,36.78,1018.24,0,0
2022-11-02 15:49:14,1007,72,-218,1,2,0,-4,5,-29,34.2,36.78,1018.24,0,0
2022-11-02 15:49:14,1007,72,-218,1,2,0,-4,5,-29,34.2,36.78,1018.24,0,0
2022-11-02 15:49:14,1007,72,-218,1,2,0,-4,5,-29,34.2,36.78,1018.24,0,0
2022-11-02 15:49:14,1007,72,-218,1,2,0,-4,5,-29,34.2,36.78,1018.24,0,0
2022-11-02 15:49:14,999,52,-218,0,0,0,-6,3,-27,34.2,36.78,1018.24,0,0
2022-11-02 15:49:14,999,52,-218,0,0,0,-6,3,-27,34.2,36.78,1018.24,0,0
2022-11-02 15:49:14,999,52,-218,0,0,0,-6,3,-27,34.2,36.78,1018.24,0,0
2022-11-02 15:49:14,999,52,-218,0,0,0,-6,3,-27,34.2,36.78,1018.24,0,0
2022-11-02 15:49:14,999,52,-218,0,0,0,-6,3,-27,34.2,36.78,1018.24,0,0
2022-11-02 15:49:14,999,52,-218,0,0,0,-6,3,-27,34.2,36.78,1018.24,0,0
2022-11-02 15:49:14,999,52,-218,0,0,0,-6,3,-27,34.2,36.78,1018.24,0,0
2022-11-02 15:49:14,999,52,-218,0,0,0,-6,3,-27,34.2,36.78,1018.24,0,0
2022-11-02 15:49:14,999,52,-218,0,0,0,-6,3,-27,34.2,36.78,1018.24,0,0
2022-11-02 15:49:14,999,52,-218,0,0,0,-6,3,-27,34.2,36.78,1018.24,0,0
2022-11-02 15:49:14,1005,64,-210,0,0,0,-4,5,-21,34.2,36.78,1018.24,0,0
2022-11-02 15:49:14,1005,64,-210,0,0,0,-4,5,-21,34.2,36.78,1018.24,0,0
2022-11-02 15:49:14,1005,64,-210,0,0,0,-4,5,-21,34.2,36.78,1018.24,0,0
2022-11-02 15:49:14,1005,64,-210,0,0,0,-4,5,-21,34.2,36.78,1018.24,0,0
2022-11-02 15:49:14,1005,64,-210,0,0,0,-4,5,-21,34.2,36.78,1018.24,0,0
2022-11-02 15:49:14,1005,64,-210,0,0,0,-4,5,-21,34.2,36.78,1018.24,0,0
2022-11-02 15:49:14,1005,64,-210,0,0,0,-4,5,-21,34.2,36.78,1018.24,0,0
2022-11-02 15:49:14,1005,64,-210,0,0,0,-4,5,-21,34.2,36.78,1018.24,0,0
2022-11-02 15:49:14,1005,64,-210,0,0,0,-4,5,-21,34.2,36.78,1018.24,0,0
2022-11-02 15:49:14,1005,64,-210,0,0,0,-4,5,-21,34.2,36.78,1018.24,0,0
2022-11-02 15:49:14,1005,66,-214,0,0,0,-6,5,-24,34.2,36.78,1018.24,0,0
2022-11-02 15:49:14,1005,66,-214,0,0,0,-6,5,-24,34.2,36.78,1018.24,0,0
2022-11-02 15:49:14,1005,66,-214,0,0,0,-6,5,-24,34.2,36.78,1018.24,0,0
2022-11-02 15:49:14,1005,66,-214,0,0,0,-6,5,-24,34.2,36.78,1018.24,0,0
2022-11-02 15:49:14,1005,66,-214,0,0,0,-6,5,-24,34.2,36.78,1018.24,0,0
2022-11-02 15:49:14,1005,66,-214,0,0,0,-6,5,-24,34.2,36.78,1018.24,0,0
2022-11-02 15:49:14,1005,66,-214,0,0,0,-6,5,-24,34.2,36.78,1018.24,0,0
2022-11-02 15:49:14,1005,66,-214,0,0,0,-6,5,-24,34.2,36.78,1018.24,0,0
2022-11-02 15:49:14,1005,66,-214,0,0,0,-6,5,-24,34.2,36.78,1018.24,0,0
2022-11-02 15:49:14,1005,66,-214,0,0,0,-6,5,-24,34.2,36.78,1018.24,0,0
2022-11-02 15:49:14,1001,62,-224,0,0,0,-8,4,-18,34.2,36.78,1018.24,0,0
2022-11-02 15:49:14,1001,62,-224,0,0,0,-8,4,-18,34.2,36.78,1018.24,0,0
2022-11-02 15:49:14,1001,62,-224,0,0,0,-8,4,-18,34.2,36.78,1018.24,0,0
2022-11-02 15:49:14,1001,62,-224,0,0,0,-8,4,-18,34.2,36.78,1018.24,0,0
2022-11-02 15:49:14,1001,62,-224,0,0,0,-8,4,-18,34.2,36.78,1018.24,0,0
2022-11-02 15:49:14,1001,62,-224,0,0,0,-8,4,-18,34.2,36.78,1018.24,0,0
2022-11-02 15:49:14,1001,62,-224,0,0,0,-8,4,-18,34.2,36.78,1018.24,0,0
2022-11-02 15:49:14,1001,62,-224,0,0,0,-8,4,-18,34.2,36.78,1018.24,0,0
2022-11-02 15:49:14,1001,62,-224,0,0,0,-8,4,-18,34.2,36.78,1018.24,0,0
2022-11-02 15:49:14,1001,62,-224,0,0,0,-8,4,-18,34.2,36.78,1018.24,0,0
2022-11-02 15:49:14,993,64,-226,0,-1,0,-7,4,-24,34.2,36.78,1018.24,0,0
2022-11-02 15:49:14,993,64,-226,0,-1,0,-7,4,-24,34.2,36.78,1018.24,0,0
2022-11-02 15:49:14,993,64,-226,0,-1,0,-7,4,-24,34.2,36.78,1018.24,0,0
2022-11-02 15:49:14,993,64,-226,0,-1,0,-7,4,-24,34.2,36.78,1018.24,0,0
2022-11-02 15:49:14,993,64,-226,0,-1,0,-7,4,-24,34.2,36.78,1018.24,0,0
2022-11-02 15:49:14,993,64,-226,0,-1,0,-7,4,-24,34.2,36.78,1018.24,0,0
2022-11-02 15:49:14,993,64,-226,0,-1,0,-7,4,-24,34.2,36.78,1018.24,0,0
2022-11-02 15:49:14,993,64,-226,0,-1,0,-7,4,-24,34.2,36.78,1018.24,0,0
2022-11-02 15:49:14,993,64,-226,0,-1,0,-7,4,-24,34.2,36.78,1018.24,0,0
2022-11-02 15:49:14,993,64,-226,0,-1,0,-7,4,-24,34.2,36.78,1018.24,0,0
2022-11-02 15:49:15,991,60,-234,0,0,0,-7,3,-21,34.2,36.78,1018.24,0,0
2022-11-02 15:49:15,991,60,-234,0,0,0,-7,3,-21,34.2,36.78,1018.24,0,0
2022-11-02 15:49:15,991,60,-234,0,0,0,-7,3,-21,34.2,36.78,1018.24,0,0
2022-11-02 15:49:15,991,60,-234,0,0,0,-7,3,-21,34.2,36.78,1018.24,0,0
2022-11-02 15:49:15,991,60,-234,0,0,0,-7,3,-21,34.2,36.78,1018.24,0,0
2022-11-02 15:49:15,991,60,-234,0,0,0,-7,3,-21,34.2,36.78,1018.24,0,0
2022-11-02 15:49:15,991,60,-234,0,0,0,-7,3,-21,34.2,36.78,1018.24,0,0
2022-11-02 15:49:15,991,60,-234,0,0,0,-7,3,-21,34.2,36.78,1018.24,0,0
2022-11-02 15:49:15,991,60,-234,0,0,0,-7,3,-21,34.2,36.78,1018.24,0,0
2022-11-02 15:49:15,991,60,-234,0,0,0,-7,3,-21,34.2,36.78,1018.24,0,0
2022-11-02 15:49:15,995,72,-245,0,0,0,-6,5,-26,34.2,36.78,1018.24,0,0
2022-11-02 15:49:15,995,72,-245,0,0,0,-6,5,-26,34.2,36.78,1018.24,0,0
2022-11-02 15:49:15,995,72,-245,0,0,0,-6,5,-26,34.2,36.78,1018.24,0,0
2022-11-02 15:49:15,995,72,-245,0,0,0,-6,5,-26,34.2,36.78,1018.24,0,0
2022-11-02 15:49:15,995,72,-245,0,0,0,-6,5,-26,34.2,36.78,1018.24,0,0
2022-11-02 15:49:15,995,72,-245,0,0,0,-6,5,-26,34.2,36.78,1018.24,0,0
2022-11-02 15:49:15,995,72,-245,0,0,0,-6,5,-26,34.2,36.78,1018.24,0,0
2022-11-02 15:49:15,995,72,-245,0,0,0,-6,5,-26,34.2,36.78,1018.24,0,0
2022-11-02 15:49:15,995,72,-245,0,0,0,-6,5,-26,34.2,36.78,1018.24,0,0
2022-11-02 15:49:15,995,72,-245,0,0,0,-6,5,-26,34.2,36.78,1018.24,0,0
2022-11-02 15:49:15,999,66,-230,0,0,0,-7,3,-21,34.2,36.78,1018.29,0,0
2022-11-02 15:49:15,999,66,-230,0,0,0,-7,3,-21,34.2,36.78,1018.29,0,0
2022-11-02 15:49:15,999,66,-230,0,0,0,-7,3,-21,34.2,36.78,1018.29,0,0
2022-11-02 15:49:15,999,66,-230,0,0,0,-7,3,-21,34.2,36.78,1018.29,0,0
2022-11-02 15:49:15,999,66,-230,0,0,0,-7,3,-21,34.2,36.78,1018.29,0,0
2022-11-02 15:49:15,999,66,-230,0,0,0,-7,3,-21,34.2,36.78,1018.29,0,0
2022-11-02 15:49:15,999,66,-230,0,0,0,-7,3,-21,34.2,36.78,1018.29,0,0
2022-11-02 15:49:15,999,66,-230,0,0,0,-7,3,-21,34.2,36.78,1018.29,0,0
2022-11-02 15:49:15,999,66,-230,0,0,0,-7,3,-21,34.2,36.78,1018.29,0,0
2022-11-02 15:49:15,999,66,-230,0,0,0,-7,3,-21,34.2,36.78,1018.29,0,0
2022-11-02 15:49:15,989,62,-238,0,0,0,-7,4,-25,34.2,36.78,1018.29,0,0
2022-11-02 15:49:15,989,62,-238,0,0,0,-7,4,-25,34.2,36.78,1018.29,0,0
2022-11-02 15:49:15,989,62,-238,0,0,0,-7,4,-25,34.2,36.78,1018.29,0,0
2022-11-02 15:49:15,989,62,-238,0,0,0,-7,4,-25,34.2,36.78,1018.29,0,0
2022-11-02 15:49:15,989,62,-238,0,0,0,-7,4,-25,34.2,36.78,1018.29,0,0
2022-11-02 15:49:15,989,62,-238,0,0,0,-7,4,-25,34.2,36.78,1018.29,0,0
2022-11-02 15:49:15,989,62,-238,0,0,0,-7,4,-25,34.2,36.78,1018.29,0,0
2022-11-02 15:49:15,989,62,-238,0,0,0,-7,4,-25,34.2,36.78,1018.29,0,0
2022-11-02 15:49:15,989,62,-238,0,0,0,-7,4,-25,34.2,36.78,1018.29,0,0
2022-11-02 15:49:15,989,62,-238,0,0,0,-7,4,-25,34.2,36.78,1018.29,0,0
2022-11-02 15:49:15,999,66,-240,0,0,0,-5,3,-24,34.2,36.78,1018.29,0,0
2022-11-02 15:49:15,999,66,-240,0,0,0,-5,3,-24,34.2,36.78,1018.29,0,0
2022-11-02 15:49:15,999,66,-240,0,0,0,-5,3,-24,34.2,36.78,1018.29,0,0
2022-11-02 15:49:15,999,66,-240,0,0,0,-5,3,-24,34.2,36.78,1018.29,0,0
2022-11-02 15:49:15,999,66,-240,0,0,0,-5,3,-24,34.2,36.78,1018.29,0,0
2022-11-02 15:49:15,999,66,-240,0,0,0,-5,3,-24,34.2,36.78,1018.29,0,0
2022-11-02 15:49:15,999,66,-240,0,0,0,-5,3,-24,34.2,36.78,1018.29,0,0
2022-11-02 15:49:15,999,66,-240,0,0,0,-5,3,-24,34.2,36.78,1018.29,0,0
2022-11-02 15:49:15,999,66,-240,0,0,0,-5,3,-24,34.2,36.78,1018.29,0,0
2022-11-02 15:49:15,999,66,-240,0,0,0,-5,3,-24,34.2,36.78,1018.29,0,0
2022-11-02 15:49:15,1001,70,-230,0,0,0,-6,6,-20,34.2,36.78,1018.29,0,0
2022-11-02 15:49:15,1001,70,-230,0,0,0,-6,6,-20,34.2,36.78,1018.29,0,0
2022-11-02 15:49:15,1001,70,-230,0,0,0,-6,6,-20,34.2,36.78,1018.29,0,0
2022-11-02 15:49:15,1001,70,-230,0,0,0,-6,6,-20,34.2,36.78,1018.29,0,0
2022-11-02 15:49:15,1001,70,-230,0,0,0,-6,6,-20,34.2,36.78,1018.29,0,0
2022-11-02 15:49:15,1001,70,-230,0,0,0,-6,6,-20,34.2,36.78,1018.29,0,0
2022-11-02 15:49:15,1001,70,-230,0,0,0,-6,6,-20,34.2,36.78,1018.29,0,0
2022-11-02 15:49:15,1001,70,-230,0,0,0,-6,6,-20,34.2,36.78,1018.29,0,0
2022-11-02 15:49:15,1001,70,-230,0,0,0,-6,6,-20,34.2,36.78,1018.29,0,0
2022-11-02 15:49:15,1001,70,-230,0,0,0,-6,6,-20,34.2,36.78,1018.29,0,0
2022-11-02 15:49:15,991,62,-230,0,0,0,-7,4,-23,34.2,36.78,1018.29,0,0
2022-11-02 15:49:15,991,62,-230,0,0,0,-7,4,-23,34.2,36.78,1018.29,0,0
2022-11-02 15:49:15,991,62,-230,0,0,0,-7,4,-23,34.2,36.78,1018.29,0,0
2022-11-02 15:49:15,991,62,-230,0,0,0,-7,4,-23,34.2,36.78,1018.29,0,0
2022-11-02 15:49:15,991,62,-230,0,0,0,-7,4,-23,34.2,36.78,1018.29,0,0
2022-11-02 15:49:15,991,62,-230,0,0,0,-7,4,-23,34.2,36.78,1018.29,0,0
2022-11-02 15:49:15,991,62,-230,0,0,0,-7,4,-23,34.2,36.78,1018.29,0,0
2022-11-02 15:49:15,991,62,-230,0,0,0,-7,4,-23,34.2,36.78,1018.29,0,0
2022-11-02 15:49:15,991,62,-230,0,0,0,-7,4,-23,34.2,36.78,1018.29,0,0
2022-11-02 15:49:15,991,62,-230,0,0,0,-7,4,-23,34.2,36.78,1018.29,0,0
2022-11-02 15:49:15,989,60,-236,0,0,0,-7,2,-15,34.2,36.78,1018.29,0,0
2022-11-02 15:49:15,989,60,-236,0,0,0,-7,2,-15,34.2,36.78,1018.29,0,0
2022-11-02 15:49:15,989,60,-236,0,0,0,-7,2,-15,34.2,36.78,1018.29,0,0
2022-11-02 15:49:15,989,60,-236,0,0,0,-7,2,-15,34.2,36.78,1018.29,0,0
2022-11-02 15:49:15,989,60,-236,0,0,0,-7,2,-15,34.2,36.78,1018.29,0,0
2022-11-02 15:49:15,989,60,-236,0,0,0,-7,2,-15,34.2,36.78,1018.29,0,0
2022-11-02 15:49:15,989,60,-236,0,0,0,-7,2,-15,34.2,36.78,1018.29,0,0
2022-11-02 15:49:15,989,60,-236,0,0,0,-7,2,-15,34.2,36.78,1018.29,0,0
2022-11-02 15:49:15,989,60,-236,0,0,0,-7,2,-15,34.2,36.78,1018.29,0,0
2022-11-02 15:49:15,989,60,-236,0,0,0,-7,2,-15,34.2,36.78,1018.29,0,0
2022-11-02 15:49:15,989,60,-245,0,0,0,-4,4,-25,34.2,36.78,1018.29,0,0
2022-11-02 15:49:15,989,60,-245,0,0,0,-4,4,-25,34.2,36.78,1018.29,0,0
2022-11-02 15:49:15,989,60,-245,0,0,0,-4,4,-25,34.2,36.78,1018.29,0,0
2022-11-02 15:49:15,989,60,-245,0,0,0,-4,4,-25,34.2,36.78,1018.29,0,0
2022-11-02 15:49:15,989,60,-245,0,0,0,-4,4,-25,34.2,36.78,1018.29,0,0
2022-11-02 15:49:15,989,60,-245,0,0,0,-4,4,-25,34.2,36.78,1018.29,0,0
2022-11-02 15:49:15,989,60,-245,0,0,0,-4,4,-25,34.2,36.78,1018.29,0,0
2022-11-02 15:49:15,989,60,-245,0,0,0,-4,4,-25,34.2,36.78,1018.29,0,0
2022-11-02 15:49:15,989,60,-245,0,0,0,-4,4,-25,34.2,36.78,1018.29,0,0
2022-11-02 15:49:15,989,60,-245,0,0,0,-4,4,-25,34.2,36.78,1018.29,0,0
2022-11-02 15:49:15,995,64,-236,0,0,0,-5,3,-26,34.2,36.78,1018.29,0,0
2022-11-02 15:49:15,995,64,-236,0,0,0,-5,3,-26,34.2,36.78,1018.29,0,0
2022-11-02 15:49:15,995,64,-236,0,0,0,-5,3,-26,34.2,36.78,1018.29,0,0
2022-11-02 15:49:15,995,64,-236,0,0,0,-5,3,-26,34.2,36.78,1018.29,0,0
2022-11-02 15:49:15,995,64,-236,0,0,0,-5,3,-26,34.2,36.78,1018.29,0,0
2022-11-02 15:49:15,995,64,-236,0,0,0,-5,3,-26,34.2,36.78,1018.29,0,0
2022-11-02 15:49:15,995,64,-236,0,0,0,-5,3,-26,34.2,36.78,1018.29,0,0
2022-11-02 15:49:15,995,64,-236,0,0,0,-5,3,-26,34.2,36.78,1018.29,0,0
2022-11-02 15:49:15,995,64,-236,0,0,0,-5,3,-26,34.2,36.78,1018.29,0,0
2022-11-02 15:49:15,995,64,-236,0,0,0,-5,3,-26,34.2,36.78,1018.29,0,0
2022-11-02 15:49:16,995,54,-234,0,0,0,-5,4,-23,34.2,36.78,1018.29,0,0
2022-11-02 15:49:16,995,54,-234,0,0,0,-5,4,-23,34.2,36.78,1018.29,0,0
2022-11-02 15:49:16,995,54,-234,0,0,0,-5,4,-23,34.2,36.78,1018.29,0,0
2022-11-02 15:49:16,995,54,-234,0,0,0,-5,4,-23,34.2,36.78,1018.29,0,0
2022-11-02 15:49:16,995,54,-234,0,0,0,-5,4,-23,34.2,36.78,1018.29,0,0
2022-11-02 15:49:16,995,54,-234,0,0,0,-5,4,-23,34.2,36.78,1018.29,0,0
2022-11-02 15:49:16,995,54,-234,0,0,0,-5,4,-23,34.2,36.78,1018.29,0,0
2022-11-02 15:49:16,995,54,-234,0,0,0,-5,4,-23,34.2,36.78,1018.29,0,0
2022-11-02 15:49:16,995,54,-234,0,0,0,-5,4,-23,34.2,36.78,1018.29,0,0
2022-11-02 15:49:16,995,54,-234,0,0,0,-5,4,-23,34.2,36.78,1018.29,0,0
2022-11-02 15:49:16,993,56,-242,0,0,0,-4,3,-22,34.2,36.78,1018.29,0,0
2022-11-02 15:49:16,993,56,-242,0,0,0,-4,3,-22,34.2,36.78,1018.29,0,0
2022-11-02 15:49:16,993,56,-242,0,0,0,-4,3,-22,34.2,36.78,1018.29,0,0
2022-11-02 15:49:16,993,56,-242,0,0,0,-4,3,-22,34.2,36.78,1018.29,0,0
2022-11-02 15:49:16,993,56,-242,0,0,0,-4,3,-22,34.2,36.78,1018.29,0,0
2022-11-02 15:49:16,993,56,-242,0,0,0,-4,3,-22,34.2,36.78,1018.29,0,0
2022-11-02 15:49:16,993,56,-242,0,0,0,-4,3,-22,34.2,36.78,1018.29,0,0
2022-11-02 15:49:16,993,56,-242,0,0,0,-4,3,-22,34.2,36.78,1018.29,0,0
2022-11-02 15:49:16,993,56,-242,0,0,0,-4,3,-22,34.2,36.78,1018.29,0,0
2022-11-02 15:49:16,993,56,-242,0,0,0,-4,3,-22,34.2,36.78,1018.29,0,0
2022-11-02 15:49:16,997,56,-226,0,1,0,-6,4,-23,34.2,36.78,1018.25,0,0
2022-11-02 15:49:16,997,56,-226,0,1,0,-6,4,-23,34.2,36.78,1018.25,0,0
2022-11-02 15:49:16,997,56,-226,0,1,0,-6,4,-23,34.2,36.78,1018.25,0,0
2022-11-02 15:49:16,997,56,-226,0,1,0,-6,4,-23,34.2,36.78,1018.25,0,0
2022-11-02 15:49:16,997,56,-226,0,1,0,-6,4,-23,34.2,36.78,1018.25,0,0
2022-11-02 15:49:16,997,56,-226,0,1,0,-6,4,-23,34.2,36.78,1018.25,0,0
2022-11-02 15:49:16,997,56,-226,0,1,0,-6,4,-23,34.2,36.78,1018.25,0,0
2022-11-02 15:49:16,997,56,-226,0,1,0,-6,4,-23,34.2,36.78,1018.25,0,0
2022-11-02 15:49:16,997,56,-226,0,1,0,-6,4,-23,34.2,36.78,1018.25,0,0
2022-11-02 15:49:16,997,56,-226,0,1,0,-6,4,-23,34.2,36.78,1018.25,0,0
2022-11-02 15:49:16,1001,56,-220,1,0,0,-6,5,-21,34.2,36.78,1018.25,0,0
2022-11-02 15:49:16,1001,56,-220,1,0,0,-6,5,-21,34.2,36.78,1018.25,0,0
2022-11-02 15:49:16,1001,56,-220,1,0,0,-6,5,-21,34.2,36.78,1018.25,0,0
2022-11-02 15:49:16,1001,56,-220,1,0,0,-6,5,-21,34.2,36.78,1018.25,0,0
2022-11-02 15:49:16,1001,56,-220,1,0,0,-6,5,-21,34.2,36.78,1018.25,0,0
2022-11-02 15:49:16,1001,56,-220,1,0,0,-6,5,-21,34.2,36.78,1018.25,0,0
2022-11-02 15:49:16,1001,56,-220,1,0,0,-6,5,-21,34.2,36.78,1018.25,0,0
2022-11-02 15:49:16,1001,56,-220,1,0,0,-6,5,-21,34.2,36.78,1018.25,0,0
2022-11-02 15:49:16,1001,56,-220,1,0,0,-6,5,-21,34.2,36.78,1018.25,0,0
2022-11-02 15:49:16,1001,56,-220,1,0,0,-6,5,-21,34.2,36.78,1018.25,0,0
2022-11-02 15:49:16,995,62,-234,1,1,0,-7,4,-22,34.2,36.78,1018.25,0,0
2022-11-02 15:49:16,995,62,-234,1,1,0,-7,4,-22,34.2,36.78,1018.25,0,0
2022-11-02 15:49:16,995,62,-234,1,1,0,-7,4,-22,34.2,36.78,1018.25,0,0
2022-11-02 15:49:16,995,62,-234,1,1,0,-7,4,-22,34.2,36.78,1018.25,0,0
2022-11-02 15:49:16,995,62,-234,1,1,0,-7,4,-22,34.2,36.78,1018.25,0,0
2022-11-02 15:49:16,995,62,-234,1,1,0,-7,4,-22,34.2,36.78,1018.25,0,0
2022-11-02 15:49:16,995,62,-234,1,1,0,-7,4,-22,34.2,36.78,1018.25,0,0
2022-11-02 15:49:16,995,62,-234,1,1,0,-7,4,-22,34.2,36.78,1018.25,0,0
2022-11-02 15:49:16,995,62,-234,1,1,0,-7,4,-22,34.2,36.78,1018.25,0,0
2022-11-02 15:49:16,995,62,-234,1,1,0,-7,4,-22,34.2,36.78,1018.25,0,0
2022-11-02 15:49:16,991,60,-228,0,1,0,-8,2,-21,34.2,36.78,1018.25,0,0
2022-11-02 15:49:16,991,60,-228,0,1,0,-8,2,-21,34.2,36.78,1018.25,0,0
2022-11-02 15:49:16,991,60,-228,0,1,0,-8,2,-21,34.2,36.78,1018.25,0,0
2022-11-02 15:49:16,991,60,-228,0,1,0,-8,2,-21,34.2,36.78,1018.25,0,0
2022-11-02 15:49:16,991,60,-228,0,1,0,-8,2,-21,34.2,36.78,1018.25,0,0
2022-11-02 15:49:16,991,60,-228,0,1,0,-8,2,-21,34.2,36.78,1018.25,0,0
2022-11-02 15:49:16,991,60,-228,0,1,0,-8,2,-21,34.2,36.78,1018.25,0,0
2022-11-02 15:49:16,991,60,-228,0,1,0,-8,2,-21,34.2,36.78,1018.25,0,0
2022-11-02 15:49:16,991,60,-228,0,1,0,-8,2,-21,34.2,36.78,1018.25,0,0
2022-11-02 15:49:16,991,60,-228,0,1,0,-8,2,-21,34.2,36.78,1018.25,0,0
2022-11-02 15:49:16,1001,48,-222,0,1,0,-6,3,-22,34.2,36.78,1018.25,0,0
2022-11-02 15:49:16,1001,48,-222,0,1,0,-6,3,-22,34.2,36.78,1018.25,0,0
2022-11-02 15:49:16,1001,48,-222,0,1,0,-6,3,-22,34.2,36.78,1018.25,0,0
2022-11-02 15:49:16,1001,48,-222,0,1,0,-6,3,-22,34.2,36.78,1018.25,0,0
2022-11-02 15:49:16,1001,48,-222,0,1,0,-6,3,-22,34.2,36.78,1018.25,0,0
2022-11-02 15:49:16,1001,48,-222,0,1,0,-6,3,-22,34.2,36.78,1018.25,0,0
2022-11-02 15:49:16,1001,48,-222,0,1,0,-6,3,-22,34.2,36.78,1018.25,0,0
2022-11-02 15:49:16,1001,48,-222,0,1,0,-6,3,-22,34.2,36.78,1018.25,0,0
2022-11-02 15:49:16,1001,48,-222,0,1,0,-6,3,-22,34.2,36.78,1018.25,0,0
2022-11-02 15:49:16,1001,48,-222,0,1,0,-6,3,-22,34.2,36.78,1018.25,0,0
2022-11-02 15:49:16,1001,56,-228,0,0,0,-7,0,-22,34.2,36.78,1018.25,0,0
2022-11-02 15:49:16,1001,56,-228,0,0,0,-7,0,-22,34.2,36.78,1018.25,0,0
2022-11-02 15:49:16,1001,56,-228,0,0,0,-7,0,-22,34.2,36.78,1018.25,0,0
2022-11-02 15:49:16,1001,56,-228,0,0,0,-7,0,-22,34.2,36.78,1018.25,0,0
2022-11-02 15:49:16,1001,56,-228,0,0,0,-7,0,-22,34.2,36.78,1018.25,0,0
2022-11-02 15:49:16,1001,56,-228,0,0,0,-7,0,-22,34.2,36.78,1018.25,0,0
2022-11-02 15:49:16,1001,56,-228,0,0,0,-7,0,-22,34.2,36.78,1018.25,0,0
2022-11-02 15:49:16,1001,56,-228,0,0,0,-7,0,-22,34.2,36.78,1018.25,0,0
2022-11-02 15:49:16,1001,56,-228,0,0,0,-7,0,-22,34.2,36.78,1018.25,0,0
2022-11-02 15:49:16,1001,56,-228,0,0,0,-7,0,-22,34.2,36.78,1018.25,0,0
2022-11-02 15:49:16,997,64,-226,0,0,0,-6,2,-24,34.2,36.78,1018.25,0,0
2022-11-02 15:49:16,997,64,-226,0,0,0,-6,2,-24,34.2,36.78,1018.25,0,0
2022-11-02 15:49:16,997,64,-226,0,0,0,-6,2,-24,34.2,36.78,1018.25,0,0
2022-11-02 15:49:16,997,64,-226,0,0,0,-6,2,-24,34.2,36.78,1018.25,0,0
2022-11-02 15:49:16,997,64,-226,0,0,0,-6,2,-24,34.2,36.78,1018.25,0,0
2022-11-02 15:49:16,997,64,-226,0,0,0,-6,2,-24,34.2,36.78,1018.25,0,0
2022-11-02 15:49:16,997,64,-226,0,0,0,-6,2,-24,34.2,36.78,1018.25,0,0
2022-11-02 15:49:16,997,64,-226,0,0,0,-6,2,-24,34.2,36.78,1018.25,0,0
2022-11-02 15:49:16,997,64,-226,0,0,0,-6,2,-24,34.2,36.78,1018.25,0,0
2022-11-02 15:49:16,997,64,-226,0,0,0,-6,2,-24,34.2,36.78,1018.25,0,0
2022-11-02 15:49:16,997,56,-224,-1,0,0,-3,4,-23,34.2,36.78,1018.25,0,0
2022-11-02 15:49:16,997,56,-224,-1,0,0,-3,4,-23,34.2,36.78,1018.25,0,0
2022-11-02 15:49:16,997,56,-224,-1,0,0,-3,4,-23,34.2,36.78,1018.25,0,0
2022-11-02 15:49:16,997,56,-224,-1,0,0,-3,4,-23,34.2,36.78,1018.25,0,0
2022-11-02 15:49:16,997,56,-224,-1,0,0,-3,4,-23,34.2,36.78,1018.25,0,0
2022-11-02 15:49:16,997,56,-224,-1,0,0,-3,4,-23,34.2,36.78,1018.25,0,0
2022-11-02 15:49:16,997,56,-224,-1,0,0,-3,4,-23,34.2,36.78,1018.25,0,0
2022-11-02 15:49:16,997,56,-224,-1,0,0,-3,4,-23,34.2,36.78,1018.25,0,0
2022-11-02 15:49:16,997,56,-224,-1,0,0,-3,4,-23,34.2,36.78,1018.25,0,0
2022-11-02 15:49:16,997,56,-224,-1,0,0,-3,4,-23,34.2,36.78,1018.25,0,0
2022-11-02 15:49:17,987,56,-238,0,0,0,-5,5,-22,34.2,36.78,1018.25,0,0
2022-11-02 15:49:17,987,56,-238,0,0,0,-5,5,-22,34.2,36.78,1018.25,0,0
2022-11-02 15:49:17,987,56,-238,0,0,0,-5,5,-22,34.2,36.78,1018.25,0,0
2022-11-02 15:49:17,987,56,-238,0,0,0,-5,5,-22,34.2,36.78,1018.25,0,0
2022-11-02 15:49:17,987,56,-238,0,0,0,-5,5,-22,34.2,36.78,1018.25,0,0
2022-11-02 15:49:17,987,56,-238,0,0,0,-5,5,-22,34.2,36.78,1018.25,0,0
2022-11-02 15:49:17,987,56,-238,0,0,0,-5,5,-22,34.2,36.78,1018.25,0,0
2022-11-02 15:49:17,987,56,-238,0,0,0,-5,5,-22,34.2,36.78,1018.25,0,0
2022-11-02 15:49:17,987,56,-238,0,0,0,-5,5,-22,34.2,36.78,1018.25,0,0
2022-11-02 15:49:17,987,56,-238,0,0,0,-5,5,-22,34.2,36.78,1018.25,0,0
2022-11-02 15:49:17,1005,50,-212,0,0,0,-3,7,-27,34.2,36.78,1018.25,0,0
2022-11-02 15:49:17,1005,50,-212,0,0,0,-3,7,-27,34.2,36.78,1018.25,0,0
2022-11-02 15:49:17,1005,50,-212,0,0,0,-3,7,-27,34.2,36.78,1018.25,0,0
2022-11-02 15:49:17,1005,50,-212,0,0,0,-3,7,-27,34.2,36.78,1018.25,0,0
2022-11-02 15:49:17,1005,50,-212,0,0,0,-3,7,-27,34.2,36.78,1018.25,0,0
2022-11-02 15:49:17,1005,50,-212,0,0,0,-3,7,-27,34.2,36.78,1018.25,0,0
2022-11-02 15:49:17,1005,50,-212,0,0,0,-3,7,-27,34.2,36.78,1018.25,0,0
2022-11-02 15:49:17,1005,50,-212,0,0,0,-3,7,-27,34.2,36.78,1018.25,0,0
2022-11-02 15:49:17,1005,50,-212,0,0,0,-3,7,-27,34.2,36.78,1018.25,0,0
2022-11-02 15:49:17,1005,50,-212,0,0,0,-3,7,-27,34.2,36.78,1018.25,0,0
2022-11-02 15:49:17,993,46,-234,0,0,0,-7,6,-24,34.2,36.76,1018.21,0,0
2022-11-02 15:49:17,993,46,-234,0,0,0,-7,6,-24,34.2,36.76,1018.21,0,0
2022-11-02 15:49:17,993,46,-234,0,0,0,-7,6,-24,34.2,36.76,1018.21,0,0
2022-11-02 15:49:17,993,46,-234,0,0,0,-7,6,-24,34.2,36.76,1018.21,0,0
2022-11-02 15:49:17,993,46,-234,0,0,0,-7,6,-24,34.2,36.76,1018.21,0,0
2022-11-02 15:49:17,993,46,-234,0,0,0,-7,6,-24,34.2,36.76,1018.21,0,0
2022-11-02 15:49:17,993,46,-234,0,0,0,-7,6,-24,34.2,36.76,1018.21,0,0
2022-11-02 15:49:17,993,46,-234,0,0,0,-7,6,-24,34.2,36.76,1018.21,0,0
2022-11-02 15:49:17,993,46,-234,0,0,0,-7,6,-24,34.2,36.76,1018.21,0,0
2022-11-02 15:49:17,993,46,-234,0,0,0,-7,6,-24,34.2,36.76,1018.21,0,0
2022-11-02 15:49:17,995,58,-224,0,0,0,-4,3,-25,34.2,36.76,1018.21,0,0
2022-11-02 15:49:17,995,58,-224,0,0,0,-4,3,-25,34.2,36.76,1018.21,0,0
2022-11-02 15:49:17,995,58,-224,0,0,0,-4,3,-25,34.2,36.76,1018.21,0,0
2022-11-02 15:49:17,995,58,-224,0,0,0,-4,3,-25,34.2,36.76,1018.21,0,0
2022-11-02 15:49:17,995,58,-224,0,0,0,-4,3,-25,34.2,36.76,1018.21,0,0
2022-11-02 15:49:17,995,58,-224,0,0,0,-4,3,-25,34.2,36.76,1018.21,0,0
2022-11-02 15:49:17,995,58,-224,0,0,0,-4,3,-25,34.2,36.76,1018.21,0,0
2022-11-02 15:49:17,995,58,-224,0,0,0,-4,3,-25,34.2,36.76,1018.21,0,0
2022-11-02 15:49:17,995,58,-224,0,0,0,-4,3,-25,34.2,36.76,1018.21,0,0
2022-11-02 15:49:17,995,58,-224,0,0,0,-4,3,-25,34.2,36.76,1018.21,0,0
2022-11-02 15:49:17,991,60,-226,0,0,0,-8,7,-21,34.2,36.76,1018.21,0,0
2022-11-02 15:49:17,991,60,-226,0,0,0,-8,7,-21,34.2,36.76,1018.21,0,0
2022-11-02 15:49:17,991,60,-226,0,0,0,-8,7,-21,34.2,36.76,1018.21,0,0
2022-11-02 15:49:17,991,60,-226,0,0,0,-8,7,-21,34.2,36.76,1018.21,0,0
2022-11-02 15:49:17,991,60,-226,0,0,0,-8,7,-21,34.2,36.76,1018.21,0,0
2022-11-02 15:49:17,991,60,-226,0,0,0,-8,7,-21,34.2,36.76,1018.21,0,0
2022-11-02 15:49:17,991,60,-226,0,0,0,-8,7,-21,34.2,36.76,1018.21,0,0
2022-11-02 15:49:17,991,60,-226,0,0,0,-8,7,-21,34.2,36.76,1018.21,0,0
2022-11-02 15:49:17,991,60,-226,0,0,0,-8,7,-21,34.2,36.76,1018.21,0,0
2022-11-02 15:49:17,991,60,-226,0,0,0,-8,7,-21,34.2,36.76,1018.21,0,0
2022-11-02 15:49:17,987,58,-226,0,0,0,-8,5,-21,34.2,36.76,1018.21,0,0
2022-11-02 15:49:17,987,58,-226,0,0,0,-8,5,-21,34.2,36.76,1018.21,0,0
2022-11-02 15:49:17,987,58,-226,0,0,0,-8,5,-21,34.2,36.76,1018.21,0,0
2022-11-02 15:49:17,987,58,-226,0,0,0,-8,5,-21,34.2,36.76,1018.21,0,0
2022-11-02 15:49:17,987,58,-226,0,0,0,-8,5,-21,34.2,36.76,1018.21,0,0
2022-11-02 15:49:17,987,58,-226,0,0,0,-8,5,-21,34.2,36.76,1018.21,0,0
2022-11-02 15:49:17,987,58,-226,0,0,0,-8,5,-21,34.2,36.76,1018.21,0,0
2022-11-02 15:49:17,987,58,-226,0,0,0,-8,5,-21,34.2,36.76,1018.21,0,0
2022-11-02 15:49:17,987,58,-226,0,0,0,-8,5,-21,34.2,36.76,1018.21,0,0
2022-11-02 15:49:17,987,58,-226,0,0,0,-8,5,-21,34.2,36.76,1018.21,0,0
2022-11-02 15:49:17,993,56,-240,0,0,0,-5,5,-25,34.2,36.76,1018.21,0,0
2022-11-02 15:49:17,993,56,-240,0,0,0,-5,5,-25,34.2,36.76,1018.21,0,0
2022-11-02 15:49:17,993,56,-240,0,0,0,-5,5,-25,34.2,36.76,1018.21,0,0
2022-11-02 15:49:17,993,56,-240,0,0,0,-5,5,-25,34.2,36.76,1018.21,0,0
2022-11-02 15:49:17,993,56,-240,0,0,0,-5,5,-25,34.2,36.76,1018.21,0,0
2022-11-02 15:49:17,993,56,-240,0,0,0,-5,5,-25,34.2,36.76,1018.21,0,0
2022-11-02 15:49:17,993,56,-240,0,0,0,-5,5,-25,34.2,36.76,1018.21,0,0
2022-11-02 15:49:17,993,56,-240,0,0,0,-5,5,-25,34.2,36.76,1018.21,0,0
2022-11-02 15:49:17,993,56,-240,0,0,0,-5,5,-25,34.2,36.76,1018.21,0,0
2022-11-02 15:49:17,993,56,-240,0,0,0,-5,5,-25,34.2,36.76,1018.21,0,0
2022-11-02 15:49:17,993,62,-236,0,0,0,-5,3,-23,34.2,36.76,1018.21,0,0
2022-11-02 15:49:17,993,62,-236,0,0,0,-5,3,-23,34.2,36.76,1018.21,0,0
2022-11-02 15:49:17,993,62,-236,0,0,0,-5,3,-23,34.2,36.76,1018.21,0,0
2022-11-02 15:49:17,993,62,-236,0,0,0,-5,3,-23,34.2,36.76,1018.21,0,0
2022-11-02 15:49:17,993,62,-236,0,0,0,-5,3,-23,34.2,36.76,1018.21,0,0
2022-11-02 15:49:17,993,62,-236,0,0,0,-5,3,-23,34.2,36.76,1018.21,0,0
2022-11-02 15:49:17,993,62,-236,0,0,0,-5,3,-23,34.2,36.76,1018.21,0,0
2022-11-02 15:49:17,993,62,-236,0,0,0,-5,3,-23,34.2,36.76,1018.21,0,0
2022-11-02 15:49:17,993,62,-236,0,0,0,-5,3,-23,34.2,36.76,1018.21,0,0
2022-11-02 15:49:17,993,62,-236,0,0,0,-5,3,-23,34.2,36.76,1018.21,0,0
2022-11-02 15:49:17,997,68,-234,0,1,0,-5,5,-18,34.2,36.76,1018.21,0,0
2022-11-02 15:49:17,997,68,-234,0,1,0,-5,5,-18,34.2,36.76,1018.21,0,0
2022-11-02 15:49:17,997,68,-234,0,1,0,-5,5,-18,34.2,36.76,1018.21,0,0
2022-11-02 15:49:17,997,68,-234,0,1,0,-5,5,-18,34.2,36.76,1018.21,0,0
2022-11-02 15:49:17,997,68,-234,0,1,0,-5,5,-18,34.2,36.76,1018.21,0,0
2022-11-02 15:49:17,997,68,-234,0,1,0,-5,5,-18,34.2,36.76,1018.21,0,0
2022-11-02 15:49:17,997,68,-234,0,1,0,-5,5,-18,34.2,36.76,1018.21,0,0
2022-11-02 15:49:17,997,68,-234,0,1,0,-5,5,-18,34.2,36.76,1018.21,0,0
2022-11-02 15:49:17,997,68,-234,0,1,0,-5,5,-18,34.2,36.76,1018.21,0,0
2022-11-02 15:49:17,997,68,-234,0,1,0,-5,5,-18,34.2,36.76,1018.21,0,0
2022-11-02 15:49:17,993,58,-224,0,1,0,-5,6,-25,34.2,36.76,1018.21,0,0
2022-11-02 15:49:17,993,58,-224,0,1,0,-5,6,-25,34.2,36.76,1018.21,0,0
2022-11-02 15:49:17,993,58,-224,0,1,0,-5,6,-25,34.2,36.76,1018.21,0,0
2022-11-02 15:49:17,993,58,-224,0,1,0,-5,6,-25,34.2,36.76,1018.21,0,0
2022-11-02 15:49:17,993,58,-224,0,1,0,-5,6,-25,34.2,36.76,1018.21,0,0
2022-11-02 15:49:17,993,58,-224,0,1,0,-5,6,-25,34.2,36.76,1018.21,0,0
2022-11-02 15:49:17,993,58,-224,0,1,0,-5,6,-25,34.2,36.76,1018.21,0,0
2022-11-02 15:49:17,993,58,-224,0,1,0,-5,6,-25,34.2,36.76,1018.21,0,0
2022-11-02 15:49:17,993,58,-224,0,1,0,-5,6,-25,34.2,36.76,1018.21,0,0
2022-11-02 15:49:17,993,58,-224,0,1,0,-5,6,-25,34.2,36.76,1018.21,0,0
2022-11-02 15:49:18,993,52,-224,0,0,0,-4,5,-26,34.2,36.76,1018.21,0,0
2022-11-02 15:49:18,993,52,-224,0,0,0,-4,5,-26,34.2,36.76,1018.21,0,0
2022-11-02 15:49:18,993,52,-224,0,0,0,-4,5,-26,34.2,36.76,1018.21,0,0
2022-11-02 15:49:18,993,52,-224,0,0,0,-4,5,-26,34.2,36.76,1018.21,0,0
2022-11-02 15:49:18,993,52,-224,0,0,0,-4,5,-26,34.2,36.76,1018.21,0,0
2022-11-02 15:49:18,993,52,-224,0,0,0,-4,5,-26,34.2,36.76,1018.21,0,0
2022-11-02 15:49:18,993,52,-224,0,0,0,-4,5,-26,34.2,36.76,1018.21,0,0
2022-11-02 15:49:18,993,52,-224,0,0,0,-4,5,-26,34.2,36.76,1018.21,0,0
2022-11-02 15:49:18,993,52,-224,0,0,0,-4,5,-26,34.2,36.76,1018.21,0,0
2022-11-02 15:49:18,993,52,-224,0,0,0,-4,5,-26,34.2,36.76,1018.21,0,0
2022-11-02 15:49:18,1005,54,-224,0,0,0,-5,4,-27,34.2,36.76,1018.21,0,0
2022-11-02 15:49:18,1005,54,-224,0,0,0,-5,4,-27,34.2,36.76,1018.21,0,0
2022-11-02 15:49:18,1005,54,-224,0,0,0,-5,4,-27,34.2,36.76,1018.21,0,0
2022-11-02 15:49:18,1005,54,-224,0,0,0,-5,4,-27,34.2,36.76,1018.21,0,0
2022-11-02 15:49:18,1005,54,-224,0,0,0,-5,4,-27,34.2,36.76,1018.21,0,0
2022-11-02 15:49:18,1005,54,-224,0,0,0,-5,4,-27,34.2,36.76,1018.21,0,0
2022-11-02 15:49:18,1005,54,-224,0,0,0,-5,4,-27,34.2,36.76,1018.21,0,0
2022-11-02 15:49:18,1005,54,-224,0,0,0,-5,4,-27,34.2,36.76,1018.21,0,0
2022-11-02 15:49:18,1005,54,-224,0,0,0,-5,4,-27,34.2,36.76,1018.21,0,0
2022-11-02 15:49:18,1005,54,-224,0,0,0,-5,4,-27,34.2,36.76,1018.21,0,0
2022-11-02 15:49:18,1005,48,-222,1,1,0,-6,3,-24,34.2,36.76,1018.28,0,0
2022-11-02 15:49:18,1005,48,-222,1,1,0,-6,3,-24,34.2,36.76,1018.28,0,0
2022-11-02 15:49:18,1005,48,-222,1,1,0,-6,3,-24,34.2,36.76,1018.28,0,0
2022-11-02 15:49:18,1005,48,-222,1,1,0,-6,3,-24,34.2,36.76,1018.28,0,0
2022-11-02 15:49:18,1005,48,-222,1,1,0,-6,3,-24,34.2,36.76,1018.28,0,0
2022-11-02 15:49:18,1005,48,-222,1,1,0,-6,3,-24,34.2,36.76,1018.28,0,0
2022-11-02 15:49:18,1005,48,-222,1,1,0,-6,3,-24,34.2,36.76,1018.28,0,0
2022-11-02 15:49:18,1005,48,-222,1,1,0,-6,3,-24,34.2,36.76,1018.28,0,0
2022-11-02 15:49:18,1005,48,-222,1,1,0,-6,3,-24,34.2,36.76,1018.28,0,0
2022-11-02 15:49:18,1005,48,-222,1,1,0,-6,3,-24,34.2,36.76,1018.28,0,0
2022-11-02 15:49:18,995,52,-224,0,1,0,-6,4,-27,34.2,36.76,1018.28,0,0
2022-11-02 15:49:18,995,52,-224,0,1,0,-6,4,-27,34.2,36.76,1018.28,0,0
2022-11-02 15:49:18,995,52,-224,0,1,0,-6,4,-27,34.2,36.76,1018.28,0,0
2022-11-02 15:49:18,995,52,-224,0,1,0,-6,4,-27,34.2,36.76,1018.28,0,0
2022-11-02 15:49:18,995,52,-224,0,1,0,-6,4,-27,34.2,36.76,1018.28,0,0
2022-11-02 15:49:18,995,52,-224,0,1,0,-6,4,-27,34.2,36.76,1018.28,0,0
2022-11-02 15:49:18,995,52,-224,0,1,0,-6,4,-27,34.2,36.76,1018.28,0,0
2022-11-02 15:49:18,995,52,-224,0,1,0,-6,4,-27,34.2,36.76,1018.28,0,0
2022-11-02 15:49:18,995,52,-224,0,1,0,-6,4,-27,34.2,36.76,1018.28,0,0
2022-11-02 15:49:18,995,52,-224,0,1,0,-6,4,-27,34.2,36.76,1018.28,0,0
2022-11-02 15:49:18,1009,42,-220,0,0,0,-6,3,-19,34.2,36.76,1018.28,0,0
2022-11-02 15:49:18,1009,42,-220,0,0,0,-6,3,-19,34.2,36.76,1018.28,0,0
2022-11-02 15:49:18,1009,42,-220,0,0,0,-6,3,-19,34.2,36.76,1018.28,0,0
2022-11-02 15:49:18,1009,42,-220,0,0,0,-6,3,-19,34.2,36.76,1018.28,0,0
2022-11-02 15:49:18,1009,42,-220,0,0,0,-6,3,-19,34.2,36.76,1018.28,0,0
2022-11-02 15:49:18,1009,42,-220,0,0,0,-6,3,-19,34.2,36.76,1018.28,0,0
2022-11-02 15:49:18,1009,42,-220,0,0,0,-6,3,-19,34.2,36.76,1018.28,0,0
2022-11-02 15:49:18,1009,42,-220,0,0,0,-6,3,-19,34.2,36.76,1018.28,0,0
2022-11-02 15:49:18,1009,42,-220,0,0,0,-6,3,-19,34.2,36.76,1018.28,0,0
2022-11-02 15:49:18,1009,42,-220,0,0,0,-6,3,-19,34.2,36.76,1018.28,0,0
2022-11-02 15:49:18,989,40,-226,0,0,-1,-6,4,-24,34.2,36.76,1018.28,0,0
2022-11-02 15:49:18,989,40,-226,0,0,-1,-6,4,-24,34.2,36.76,1018.28,0,0
2022-11-02 15:49:18,989,40,-226,0,0,-1,-6,4,-24,34.2,36.76,1018.28,0,0
2022-11-02 15:49:18,989,40,-226,0,0,-1,-6,4,-24,34.2,36.76,1018.28,0,0
2022-11-02 15:49:18,989,40,-226,0,0,-1,-6,4,-24,34.2,36.76,1018.28,0,0
2022-11-02 15:49:18,989,40,-226,0,0,-1,-6,4,-24,34.2,36.76,1018.28,0,0
2022-11-02 15:49:18,989,40,-226,0,0,-1,-6,4,-24,34.2,36.76,1018.28,0,0
2022-11-02 15:49:18,989,40,-226,0,0,-1,-6,4,-24,34.2,36.76,1018.28,0,0
2022-11-02 15:49:18,989,40,-226,0,0,-1,-6,4,-24,34.2,36.76,1018.28,0,0
2022-11-02 15:49:18,989,40,-226,0,0,-1,-6,4,-24,34.2,36.76,1018.28,0,0
2022-11-02 15:49:18,993,44,-232,0,0,0,-5,2,-22,34.2,36.76,1018.28,0,0
2022-11-02 15:49:18,993,44,-232,0,0,0,-5,2,-22,34.2,36.76,1018.28,0,0
2022-11-02 15:49:18,993,44,-232,0,0,0,-5,2,-22,34.2,36.76,1018.28,0,0
2022-11-02 15:49:18,993,44,-232,0,0,0,-5,2,-22,34.2,36.76,1018.28,0,0
2022-11-02 15:49:18,993,44,-232,0,0,0,-5,2,-22,34.2,36.76,1018.28,0,0
2022-11-02 15:49:18,993,44,-232,0,0,0,-5,2,-22,34.2,36.76,1018.28,0,0
2022-11-02 15:49:18,993,44,-232,0,0,0,-5,2,-22,34.2,36.76,1018.28,0,0
2022-11-02 15:49:18,993,44,-232,0,0,0,-5,2,-22,34.2,36.76,1018.28,0,0
2022-11-02 15:49:18,993,44,-232,0,0,0,-5,2,-22,34.2,36.76,1018.28,0,0
2022-11-02 15:49:18,993,44,-232,0,0,0,-5,2,-22,34.2,36.76,1018.28,0,0
2022-11-02 15:49:18,995,64,-224,0,0,0,-4,1,-22,34.2,36.76,1018.28,0,0
2022-11-02 15:49:18,995,64,-224,0,0,0,-4,1,-22,34.2,36.76,1018.28,0,0
2022-11-02 15:49:18,995,64,-224,0,0,0,-4,1,-22,34.2,36.76,1018.28,0,0
2022-11-02 15:49:18,995,64,-224,0,0,0,-4,1,-22,34.2,36.76,1018.28,0,0
2022-11-02 15:49:18,995,64,-224,0,0,0,-4,1,-22,34.2,36.76,1018.28,0,0
2022-11-02 15:49:18,995,64,-224,0,0,0,-4,1,-22,34.2,36.76,1018.28,0,0
2022-11-02 15:49:18,995,64,-224,0,0,0,-4,1,-22,34.2,36.76,1018.28,0,0
2022-11-02 15:49:18,995,64,-224,0,0,0,-4,1,-22,34.2,36.76,1018.28,0,0
2022-11-02 15:49:18,995,64,-224,0,0,0,-4,1,-22,34.2,36.76,1018.28,0,0
2022-11-02 15:49:18,995,64,-224,0,0,0,-4,1,-22,34.2,36.76,1018.28,0,0
2022-11-02 15:49:18,1005,60,-220,0,0,0,-6,3,-22,34.2,36.76,1018.28,0,0
2022-11-02 15:49:18,1005,60,-220,0,0,0,-6,3,-22,34.2,36.76,1018.28,0,0
2022-11-02 15:49:18,1005,60,-220,0,0,0,-6,3,-22,34.2,36.76,1018.28,0,0
2022-11-02 15:49:18,1005,60,-220,0,0,0,-6,3,-22,34.2,36.76,1018.28,0,0
2022-11-02 15:49:18,1005,60,-220,0,0,0,-6,3,-22,34.2,36.76,1018.28,0,0
2022-11-02 15:49:18,1005,60,-220,0,0,0,-6,3,-22,34.2,36.76,1018.28,0,0
2022-11-02 15:49:18,1005,60,-220,0,0,0,-6,3,-22,34.2,36.76,1018.28,0,0
2022-11-02 15:49:18,1005,60,-220,0,0,0,-6,3,-22,34.2,36.76,1018.28,0,0
2022-11-02 15:49:18,1005,60,-220,0,0,0,-6,3,-22,34.2,36.76,1018.28,0,0
2022-11-02 15:49:18,1005,60,-220,0,0,0,-6,3,-22,34.2,36.76,1018.28,0,0
2022-11-02 15:49:18,997,54,-230,-1,0,0,-5,2,-20,34.2,36.76,1018.28,0,0
2022-11-02 15:49:18,997,54,-230,-1,0,0,-5,2,-20,34.2,36.76,1018.28,0,0
2022-11-02 15:49:18,997,54,-230,-1,0,0,-5,2,-20,34.2,36.76,1018.28,0,0
2022-11-02 15:49:18,997,54,-230,-1,0,0,-5,2,-20,34.2,36.76,1018.28,0,0
2022-11-02 15:49:18,997,54,-230,-1,0,0,-5,2,-20,34.2,36.76,1018.28,0,0
2022-11-02 15:49:18,997,54,-230,-1,0,0,-5,2,-20,34.2,36.76,1018.28,0,0
2022-11-02 15:49:18,997,54,-230,-1,0,0,-5,2,-20,34.2,36.76,1018.28,0,0
2022-11-02 15:49:18,997,54,-230,-1,0,0,-5,2,-20,34.2,36.76,1018.28,0,0
2022-11-02 15:49:18,997,54,-230,-1,0,0,-5,2,-20,34.2,36.76,1018.28,0,0
2022-11-02 15:49:18,997,54,-230,-1,0,0,-5,2,-20,34.2,36.76,1018.28,0,0
2022-11-02 15:49:19,991,58,-234,0,0,1,-6,3,-26,34.2,36.76,1018.28,0,0
2022-11-02 15:49:19,991,58,-234,0,0,1,-6,3,-26,34.2,36.76,1018.28,0,0
2022-11-02 15:49:19,991,58,-234,0,0,1,-6,3,-26,34.2,36.76,1018.28,0,0
2022-11-02 15:49:19,991,58,-234,0,0,1,-6,3,-26,34.2,36.76,1018.28,0,0
2022-11-02 15:49:19,991,58,-234,0,0,1,-6,3,-26,34.2,36.76,1018.28,0,0
2022-11-02 15:49:19,991,58,-234,0,0,1,-6,3,-26,34.2,36.76,1018.28,0,0
2022-11-02 15:49:19,991,58,-234,0,0,1,-6,3,-26,34.2,36.76,1018.28,0,0
2022-11-02 15:49:19,991,58,-234,0,0,1,-6,3,-26,34.2,36.76,1018.28,0,0
2022-11-02 15:49:19,991,58,-234,0,0,1,-6,3,-26,34.2,36.76,1018.28,0,0
2022-11-02 15:49:19,991,58,-234,0,0,1,-6,3,-26,34.2,36.76,1018.28,0,0
2022-11-02 15:49:19,1001,50,-208,0,1,0,-7,4,-24,34.2,36.76,1018.28,0,0
2022-11-02 15:49:19,1001,50,-208,0,1,0,-7,4,-24,34.2,36.76,1018.28,0,0
2022-11-02 15:49:19,1001,50,-208,0,1,0,-7,4,-24,34.2,36.76,1018.28,0,0
2022-11-02 15:49:19,1001,50,-208,0,1,0,-7,4,-24,34.2,36.76,1018.28,0,0
2022-11-02 15:49:19,1001,50,-208,0,1,0,-7,4,-24,34.2,36.76,1018.28,0,0
2022-11-02 15:49:19,1001,50,-208,0,1,0,-7,4,-24,34.2,36.76,1018.28,0,0
2022-11-02 15:49:19,1001,50,-208,0,1,0,-7,4,-24,34.2,36.76,1018.28,0,0
2022-11-02 15:49:19,1001,50,-208,0,1,0,-7,4,-24,34.2,36.76,1018.28,0,0
2022-11-02 15:49:19,1001,50,-208,0,1,0,-7,4,-24,34.2,36.76,1018.28,0,0
2022-11-02 15:49:19,1001,50,-208,0,1,0,-7,4,-24,34.2,36.76,1018.28,0,0
2022-11-02 15:49:19,993,46,-226,0,0,0,-5,5,-24,34.2,36.76,1018.26,0,0
2022-11-02 15:49:19,993,46,-226,0,0,0,-5,5,-24,34.2,36.76,1018.26,0,0
2022-11-02 15:49:19,993,46,-226,0,0,0,-5,5,-24,34.2,36.76,1018.26,0,0
2022-11-02 15:49:19,993,46,-226,0,0,0,-5,5,-24,34.2,36.76,1018.26,0,0
2022-11-02 15:49:19,993,46,-226,0,0,0,-5,5,-24,34.2,36.76,1018.26,0,0
2022-11-02 15:49:19,993,46,-226,0,0,0,-5,5,-24,34.2,36.76,1018.26,0,0
2022-11-02 15:49:19,993,46,-226,0,0,0,-5,5,-24,34.2,36.76,1018.26,0,0
2022-11-02 15:49:19,993,46,-226,0,0,0,-5,5,-24,34.2,36.76,1018.26,0,0
2022-11-02 15:49:19,993,46,-226,0,0,0,-5,5,-24,34.2,36.76,1018.26,0,0
2022-11-02 15:49:19,993,46,-226,0,0,0,-5,5,-24,34.2,36.76,1018.26,0,0
2022-11-02 15:49:19,991,48,-214,0,0,0,-7,3,-24,34.2,36.76,1018.26,0,0
2022-11-02 15:49:19,991,48,-214,0,0,0,-7,3,-24,34.2,36.76,1018.26,0,0
2022-11-02 15:49:19,991,48,-214,0,0,0,-7,3,-24,34.2,36.76,1018.26,0,0
2022-11-02 15:49:19,991,48,-214,0,0,0,-7,3,-24,34.2,36.76,1018.26,0,0
2022-11-02 15:49:19,991,48,-214,0,0,0,-7,3,-24,34.2,36.76,1018.26,0,0
2022-11-02 15:49:19,991,48,-214,0,0,0,-7,3,-24,34.2,36.76,1018.26,0,0
2022-11-02 15:49:19,991,48,-214,0,0,0,-7,3,-24,34.2,36.76,1018.26,0,0
2022-11-02 15:49:19,991,48,-214,0,0,0,-7,3,-24,34.2,36.76,1018.26,0,0
2022-11-02 15:49:19,991,48,-214,0,0,0,-7,3,-24,34.2,36.76,1018.26,0,0
2022-11-02 15:49:19,991,48,-214,0,0,0,-7,3,-24,34.2,36.76,1018.26,0,0
2022-11-02 15:49:19,972,54,-242,1,-1,0,-7,4,-22,34.2,36.76,1018.26,0,0
2022-11-02 15:49:19,972,54,-242,1,-1,0,-7,4,-22,34.2,36.76,1018.26,0,0
2022-11-02 15:49:19,972,54,-242,1,-1,0,-7,4,-22,34.2,36.76,1018.26,0,0
2022-11-02 15:49:19,972,54,-242,1,-1,0,-7,4,-22,34.2,36.76,1018.26,0,0
2022-11-02 15:49:19,972,54,-242,1,-1,0,-7,4,-22,34.2,36.76,1018.26,0,0
2022-11-02 15:49:19,972,54,-242,1,-1,0,-7,4,-22,34.2,36.76,1018.26,0,0
2022-11-02 15:49:19,972,54,-242,1,-1,0,-7,4,-22,34.2,36.76,1018.26,0,0
2022-11-02 15:49:19,972,54,-242,1,-1,0,-7,4,-22,34.2,36.76,1018.26,0,0
2022-11-02 15:49:19,972,54,-242,1,-1,0,-7,4,-22,34.2,36.76,1018.26,0,0
2022-11-02 15:49:19,972,54,-242,1,-1,0,-7,4,-22,34.2,36.76,1018.26,0,0
2022-11-02 15:49:19,991,54,-228,0,0,0,-4,2,-24,34.2,36.76,1018.26,0,0
2022-11-02 15:49:19,991,54,-228,0,0,0,-4,2,-24,34.2,36.76,1018.26,0,0
2022-11-02 15:49:19,991,54,-228,0,0,0,-4,2,-24,34.2,36.76,1018.26,0,0
2022-11-02 15:49:19,991,54,-228,0,0,0,-4,2,-24,34.2,36.76,1018.26,0,0
2022-11-02 15:49:19,991,54,-228,0,0,0,-4,2,-24,34.2,36.76,1018.26,0,0
2022-11-02 15:49:19,991,54,-228,0,0,0,-4,2,-24,34.2,36.76,1018.26,0,0
2022-11-02 15:49:19,991,54,-228,0,0,0,-4,2,-24,34.2,36.76,1018.26,0,0
2022-11-02 15:49:19,991,54,-228,0,0,0,-4,2,-24,34.2,36.76,1018.26,0,0
2022-11-02 15:49:19,991,54,-228,0,0,0,-4,2,-24,34.2,36.76,1018.26,0,0
2022-11-02 15:49:19,991,54,-228,0,0,0,-4,2,-24,34.2,36.76,1018.26,0,0
2022-11-02 15:49:19,1011,42,-199,0,1,0,-5,4,-25,34.2,36.76,1018.26,0,0
2022-11-02 15:49:19,1011,42,-199,0,1,0,-5,4,-25,34.2,36.76,1018.26,0,0
2022-11-02 15:49:19,1011,42,-199,0,1,0,-5,4,-25,34.2,36.76,1018.26,0,0
2022-11-02 15:49:19,1011,42,-199,0,1,0,-5,4,-25,34.2,36.76,1018.26,0,0
2022-11-02 15:49:19,1011,42,-199,0,1,0,-5,4,-25,34.2,36.76,1018.26,0,0
2022-11-02 15:49:19,1011,42,-199,0,1,0,-5,4,-25,34.2,36.76,1018.26,0,0
2022-11-02 15:49:19,1011,42,-199,0,1,0,-5,4,-25,34.2,36.76,1018.26,0,0
2022-11-02 15:49:19,1011,42,-199,0,1,0,-5,4,-25,34.2,36.76,1018.26,0,0
2022-11-02 15:49:19,1011,42,-199,0,1,0,-5,4,-25,34.2,36.76,1018.26,0,0
2022-11-02 15:49:19,1011,42,-199,0,1,0,-5,4,-25,34.2,36.76,1018.26,0,0
2022-11-02 15:49:19,1001,54,-214,0,0,0,-4,3,-25,34.2,36.76,1018.26,0,0
2022-11-02 15:49:19,1001,54,-214,0,0,0,-4,3,-25,34.2,36.76,1018.26,0,0
2022-11-02 15:49:19,1001,54,-214,0,0,0,-4,3,-25,34.2,36.76,1018.26,0,0
2022-11-02 15:49:19,1001,54,-214,0,0,0,-4,3,-25,34.2,36.76,1018.26,0,0
2022-11-02 15:49:19,1001,54,-214,0,0,0,-4,3,-25,34.2,36.76,1018.26,0,0
2022-11-02 15:49:19,1001,54,-214,0,0,0,-4,3,-25,34.2,36.76,1018.26,0,0
2022-11-02 15:49:19,1001,54,-214,0,0,0,-4,3,-25,34.2,36.76,1018.26,0,0
2022-11-02 15:49:19,1001,54,-214,0,0,0,-4,3,-25,34.2,36.76,1018.26,0,0
2022-11-02 15:49:19,1001,54,-214,0,0,0,-4,3,-25,34.2,36.76,1018.26,0,0
2022-11-02 15:49:19,1001,54,-214,0,0,0,-4,3,-25,34.2,36.76,1018.26,0,0
2022-11-02 15:49:19,993,46,-230,0,1,0,-4,4,-30,34.2,36.76,1018.26,0,0
2022-11-02 15:49:19,993,46,-230,0,1,0,-4,4,-30,34.2,36.76,1018.26,0,0
2022-11-02 15:49:19,993,46,-230,0,1,0,-4,4,-30,34.2,36.76,1018.26,0,0
2022-11-02 15:49:19,993,46,-230,0,1,0,-4,4,-30,34.2,36.76,1018.26,0,0
2022-11-02 15:49:19,993,46,-230,0,1,0,-4,4,-30,34.2,36.76,1018.26,0,0
2022-11-02 15:49:19,993,46,-230,0,1,0,-4,4,-30,34.2,36.76,1018.26,0,0
2022-11-02 15:49:19,993,46,-230,0,1,0,-4,4,-30,34.2,36.76,1018.26,0,0
2022-11-02 15:49:19,993,46,-230,0,1,0,-4,4,-30,34.2,36.76,1018.26,0,0
2022-11-02 15:49:19,993,46,-230,0,1,0,-4,4,-30,34.2,36.76,1018.26,0,0
2022-11-02 15:49:19,993,46,-230,0,1,0,-4,4,-30,34.2,36.76,1018.26,0,0
2022-11-02 15:49:19,993,48,-212,0,-1,0,-8,3,-25,34.2,36.76,1018.26,0,0
2022-11-02 15:49:19,993,48,-212,0,-1,0,-8,3,-25,34.2,36.76,1018.26,0,0
2022-11-02 15:49:19,993,48,-212,0,-1,0,-8,3,-25,34.2,36.76,1018.26,0,0
2022-11-02 15:49:19,993,48,-212,0,-1,0,-8,3,-25,34.2,36.76,1018.26,0,0
2022-11-02 15:49:19,993,48,-212,0,-1,0,-8,3,-25,34.2,36.76,1018.26,0,0
2022-11-02 15:49:19,993,48,-212,0,-1,0,-8,3,-25,34.2,36.76,1018.26,0,0
2022-11-02 15:49:19,993,48,-212,0,-1,0,-8,3,-25,34.2,36.76,1018.26,0,0
2022-11-02 15:49:19,993,48,-212,0,-1,0,-8,3,-25,34.2,36.76,1018.26,0,0
2022-11-02 15:49:19,993,48,-212,0,-1,0,-8,3,-25,34.2,36.76,1018.26,0,0
2022-11-02 15:49:19,993,48,-212,0,-1,0,-8,3,-25,34.2,36.76,1018.26,0,0
2022-11-02 15:49:20,997,50,-234,0,0,0,-5,3,-25,34.2,36.76,1018.26,0,0
2022-11-02 15:49:20,997,50,-234,0,0,0,-5,3,-25,34.2,36.76,1018.26,0,0
2022-11-02 15:49:20,997,50,-234,0,0,0,-5,3,-25,34.2,36.76,1018.26,0,0
2022-11-02 15:49:20,997,50,-234,0,0,0,-5,3,-25,34.2,36.76,1018.26,0,0
2022-11-02 15:49:20,997,50,-234,0,0,0,-5,3,-25,34.2,36.76,1018.26,0,0
2022-11-02 15:49:20,997,50,-234,0,0,0,-5,3,-25,34.2,36.76,1018.26,0,0
2022-11-02 15:49:20,997,50,-234,0,0,0,-5,3,-25,34.2,36.76,1018.26,0,0
2022-11-02 15:49:20,997,50,-234,0,0,0,-5,3,-25,34.2,36.76,1018.26,0,0
2022-11-02 15:49:20,997,50,-234,0,0,0,-5,3,-25,34.2,36.76,1018.26,0,0
2022-11-02 15:49:20,997,50,-234,0,0,0,-5,3,-25,34.2,36.76,1018.26,0,0
2022-11-02 15:49:20,1001,56,-222,0,0,0,-7,4,-22,34.2,36.76,1018.26,0,0
2022-11-02 15:49:20,1001,56,-222,0,0,0,-7,4,-22,34.2,36.76,1018.26,0,0
2022-11-02 15:49:20,1001,56,-222,0,0,0,-7,4,-22,34.2,36.76,1018.26,0,0
2022-11-02 15:49:20,1001,56,-222,0,0,0,-7,4,-22,34.2,36.76,1018.26,0,0
2022-11-02 15:49:20,1001,56,-222,0,0,0,-7,4,-22,34.2,36.76,1018.26,0,0
2022-11-02 15:49:20,1001,56,-222,0,0,0,-7,4,-22,34.2,36.76,1018.26,0,0
2022-11-02 15:49:20,1001,56,-222,0,0,0,-7,4,-22,34.2,36.76,1018.26,0,0
2022-11-02 15:49:20,1001,56,-222,0,0,0,-7,4,-22,34.2,36.76,1018.26,0,0
2022-11-02 15:49:20,1001,56,-222,0,0,0,-7,4,-22,34.2,36.76,1018.26,0,0
2022-11-02 15:49:20,1001,56,-222,0,0,0,-7,4,-22,34.2,36.76,1018.26,0,0
2022-11-02 15:49:20,1005,42,-220,0,0,0,-3,4,-23,34.2,36.75,1018.22,0,0
2022-11-02 15:49:20,1005,42,-220,0,0,0,-3,4,-23,34.2,36.75,1018.22,0,0
2022-11-02 15:49:20,1005,42,-220,0,0,0,-3,4,-23,34.2,36.75,1018.22,0,0
2022-11-02 15:49:20,1005,42,-220,0,0,0,-3,4,-23,34.2,36.75,1018.22,0,0
2022-11-02 15:49:20,1005,42,-220,0,0,0,-3,4,-23,34.2,36.75,1018.22,0,0
2022-11-02 15:49:20,1005,42,-220,0,0,0,-3,4,-23,34.2,36.75,1018.22,0,0
2022-11-02 15:49:20,1005,42,-220,0,0,0,-3,4,-23,34.2,36.75,1018.22,0,0
2022-11-02 15:49:20,1005,42,-220,0,0,0,-3,4,-23,34.2,36.75,1018.22,0,0
2022-11-02 15:49:20,1005,42,-220,0,0,0,-3,4,-23,34.2,36.75,1018.22,0,0
2022-11-02 15:49:20,1005,42,-220,0,0,0,-3,4,-23,34.2,36.75,1018.22,0,0
2022-11-02 15:49:20,995,50,-226,0,0,0,-5,4,-24,34.2,36.75,1018.22,0,0
2022-11-02 15:49:20,995,50,-226,0,0,0,-5,4,-24,34.2,36.75,1018.22,0,0
2022-11-02 15:49:20,995,50,-226,0,0,0,-5,4,-24,34.2,36.75,1018.22,0,0
2022-11-02 15:49:20,995,50,-226,0,0,0,-5,4,-24,34.2,36.75,1018.22,0,0
2022-11-02 15:49:20,995,50,-226,0,0,0,-5,4,-24,34.2,36.75,1018.22,0,0
2022-11-02 15:49:20,995,50,-226,0,0,0,-5,4,-24,34.2,36.75,1018.22,0,0
2022-11-02 15:49:20,995,50,-226,0,0,0,-5,4,-24,34.2,36.75,1018.22,0,0
2022-11-02 15:49:20,995,50,-226,0,0,0,-5,4,-24,34.2,36.75,1018.22,0,0
2022-11-02 15:49:20,995,50,-226,0,0,0,-5,4,-24,34.2,36.75,1018.22,0,0
2022-11-02 15:49:20,995,50,-226,0,0,0,-5,4,-24,34.2,36.75,1018.22,0,0
2022-11-02 15:49:20,989,56,-232,0,0,0,-5,4,-21,34.2,36.75,1018.22,0,0
2022-11-02 15:49:20,989,56,-232,0,0,0,-5,4,-21,34.2,36.75,1018.22,0,0
2022-11-02 15:49:20,989,56,-232,0,0,0,-5,4,-21,34.2,36.75,1018.22,0,0
2022-11-02 15:49:20,989,56,-232,0,0,0,-5,4,-21,34.2,36.75,1018.22,0,0
2022-11-02 15:49:20,989,56,-232,0,0,0,-5,4,-21,34.2,36.75,1018.22,0,0
2022-11-02 15:49:20,989,56,-232,0,0,0,-5,4,-21,34.2,36.75,1018.22,0,0
2022-11-02 15:49:20,989,56,-232,0,0,0,-5,4,-21,34.2,36.75,1018.22,0,0
2022-11-02 15:49:20,989,56,-232,0,0,0,-5,4,-21,34.2,36.75,1018.22,0,0
2022-11-02 15:49:20,989,56,-232,0,0,0,-5,4,-21,34.2,36.75,1018.22,0,0
2022-11-02 15:49:20,989,56,-232,0,0,0,-5,4,-21,34.2,36.75,1018.22,0,0
2022-11-02 15:49:20,997,52,-218,1,1,0,-4,3,-29,34.2,36.75,1018.22,0,0
2022-11-02 15:49:20,997,52,-218,1,1,0,-4,3,-29,34.2,36.75,1018.22,0,0
2022-11-02 15:49:20,997,52,-218,1,1,0,-4,3,-29,34.2,36.75,1018.22,0,0
2022-11-02 15:49:20,997,52,-218,1,1,0,-4,3,-29,34.2,36.75,1018.22,0,0
2022-11-02 15:49:20,997,52,-218,1,1,0,-4,3,-29,34.2,36.75,1018.22,0,0
2022-11-02 15:49:20,997,52,-218,1,1,0,-4,3,-29,34.2,36.75,1018.22,0,0
2022-11-02 15:49:20,997,52,-218,1,1,0,-4,3,-29,34.2,36.75,1018.22,0,0
2022-11-02 15:49:20,997,52,-218,1,1,0,-4,3,-29,34.2,36.75,1018.22,0,0
2022-11-02 15:49:20,997,52,-218,1,1,0,-4,3,-29,34.2,36.75,1018.22,0,0
2022-11-02 15:49:20,997,52,-218,1,1,0,-4,3,-29,34.2,36.75,1018.22,0,0
2022-11-02 15:49:20,1007,46,-216,1,0,0,-7,3,-25,34.2,36.75,1018.22,0,0
2022-11-02 15:49:20,1007,46,-216,1,0,0,-7,3,-25,34.2,36.75,1018.22,0,0
2022-11-02 15:49:20,1007,46,-216,1,0,0,-7,3,-25,34.2,36.75,1018.22,0,0
2022-11-02 15:49:20,1007,46,-216,1,0,0,-7,3,-25,34.2,36.75,1018.22,0,0
2022-11-02 15:49:20,1007,46,-216,1,0,0,-7,3,-25,34.2,36.75,1018.22,0,0
2022-11-02 15:49:20,1007,46,-216,1,0,0,-7,3,-25,34.2,36.75,1018.22,0,0
2022-11-02 15:49:20,1007,46,-216,1,0,0,-7,3,-25,34.2,36.75,1018.22,0,0
2022-11-02 15:49:20,1007,46,-216,1,0,0,-7,3,-25,34.2,36.75,1018.22,0,0
2022-11-02 15:49:20,1007,46,-216,1,0,0,-7,3,-25,34.2,36.75,1018.22,0,0
2022-11-02 15:49:20,1007,46,-216,1,0,0,-7,3,-25,34.2,36.75,1018.22,0,0
2022-11-02 15:49:20,989,37,-234,1,0,0,-7,6,-25,34.2,36.75,1018.22,0,0
2022-11-02 15:49:20,989,37,-234,1,0,0,-7,6,-25,34.2,36.75,1018.22,0,0
2022-11-02 15:49:20,989,37,-234,1,0,0,-7,6,-25,34.2,36.75,1018.22,0,0
2022-11-02 15:49:20,989,37,-234,1,0,0,-7,6,-25,34.2,36.75,1018.22,0,0
2022-11-02 15:49:20,989,37,-234,1,0,0,-7,6,-25,34.2,36.75,1018.22,0,0
2022-11-02 15:49:20,989,37,-234,1,0,0,-7,6,-25,34.2,36.75,1018.22,0,0
2022-11-02 15:49:20,989,37,-234,1,0,0,-7,6,-25,34.2,36.75,1018.22,0,0
2022-11-02 15:49:20,989,37,-234,1,0,0,-7,6,-25,34.2,36.75,1018.22,0,0
2022-11-02 15:49:20,989,37,-234,1,0,0,-7,6,-25,34.2,36.75,1018.22,0,0
2022-11-02 15:49:20,989,37,-234,1,0,0,-7,6,-25,34.2,36.75,1018.22,0,0
2022-11-02 15:49:20,1001,40,-220,-2,0,0,-5,4,-25,34.2,36.75,1018.22,0,0
2022-11-02 15:49:20,1001,40,-220,-2,0,0,-5,4,-25,34.2,36.75,1018.22,0,0
2022-11-02 15:49:20,1001,40,-220,-2,0,0,-5,4,-25,34.2,36.75,1018.22,0,0
2022-11-02 15:49:20,1001,40,-220,-2,0,0,-5,4,-25,34.2,36.75,1018.22,0,0
2022-11-02 15:49:20,1001,40,-220,-2,0,0,-5,4,-25,34.2,36.75,1018.22,0,0
2022-11-02 15:49:20,1001,40,-220,-2,0,0,-5,4,-25,34.2,36.75,1018.22,0,0
2022-11-02 15:49:20,1001,40,-220,-2,0,0,-5,4,-25,34.2,36.75,1018.22,0,0
2022-11-02 15:49:20,1001,40,-220,-2,0,0,-5,4,-25,34.2,36.75,1018.22,0,0
2022-11-02 15:49:20,1001,40,-220,-2,0,0,-5,4,-25,34.2,36.75,1018.22,0,0
2022-11-02 15:49:20,1001,40,-220,-2,0,0,-5,4,-25,34.2,36.75,1018.22,0,0
2022-11-02 15:49:20,995,54,-228,-1,0,0,-4,3,-23,34.2,36.75,1018.22,0,0
2022-11-02 15:49:20,995,54,-228,-1,0,0,-4,3,-23,34.2,36.75,1018.22,0,0
2022-11-02 15:49:20,995,54,-228,-1,0,0,-4,3,-23,34.2,36.75,1018.22,0,0
2022-11-02 15:49:20,995,54,-228,-1,0,0,-4,3,-23,34.2,36.75,1018.22,0,0
2022-11-02 15:49:20,995,54,-228,-1,0,0,-4,3,-23,34.2,36.75,1018.22,0,0
2022-11-02 15:49:20,995,54,-228,-1,0,0,-4,3,-23,34.2,36.75,1018.22,0,0
2022-11-02 15:49:20,995,54,-228,-1,0,0,-4,3,-23,34.2,36.75,1018.22,0,0
2022-11-02 15:49:20,995,54,-228,-1,0,0,-4,3,-23,34.2,36.75,1018.22,0,0
2022-11-02 15:49:20,995,54,-228,-1,0,0,-4,3,-23,34.2,36.75,1018.22,0,0
2022-11-02 15:49:20,995,54,-228,-1,0,0,-4,3,-23,34.2,36.75,1018.22,0,0
2022-11-02 15:49:21,993,52,-226,-2,0,0,-7,4,-22,34.2,36.75,1018.22,0,0
2022-11-02 15:49:21,993,52,-226,-2,0,0,-7,4,-22,34.2,36.75,1018.22,0,0
2022-11-02 15:49:21,993,52,-226,-2,0,0,-7,4,-22,34.2,36.75,1018.22,0,0
2022-11-02 15:49:21,993,52,-226,-2,0,0,-7,4,-22,34.2,36.75,1018.22,0,0
2022-11-02 15:49:21,993,52,-226,-2,0,0,-7,4,-22,34.2,36.75,1018.22,0,0
2022-11-02 15:49:21,993,52,-226,-2,0,0,-7,4,-22,34.2,36.75,1018.22,0,0
2022-11-02 15:49:21,993,52,-226,-2,0,0,-7,4,-22,34.2,36.75,1018.22,0,0
2022-11-02 15:49:21,993,52,-226,-2,0,0,-7,4,-22,34.2,36.75,1018.22,0,0
2022-11-02 15:49:21,993,52,-226,-2,0,0,-7,4,-22,34.2,36.75,1018.22,0,0
2022-11-02 15:49:21,993,52,-226,-2,0,0,-7,4,-22,34.2,36.75,1018.22,0,0
2022-11-02 15:49:21,989,52,-228,0,0,-1,-5,4,-27,34.2,36.75,1018.22,0,0
2022-11-02 15:49:21,989,52,-228,0,0,-1,-5,4,-27,34.2,36.75,1018.22,0,0
2022-11-02 15:49:21,989,52,-228,0,0,-1,-5,4,-27,34.2,36.75,1018.22,0,0
2022-11-02 15:49:21,989,52,-228,0,0,-1,-5,4,-27,34.2,36.75,1018.22,0,0
2022-11-02 15:49:21,989,52,-228,0,0,-1,-5,4,-27,34.2,36.75,1018.22,0,0
2022-11-02 15:49:21,989,52,-228,0,0,-1,-5,4,-27,34.2,36.75,1018.22,0,0
2022-11-02 15:49:21,989,52,-228,0,0,-1,-5,4,-27,34.2,36.75,1018.22,0,0
2022-11-02 15:49:21,989,52,-228,0,0,-1,-5,4,-27,34.2,36.75,1018.22,0,0
2022-11-02 15:49:21,989,52,-228,0,0,-1,-5,4,-27,34.2,36.75,1018.22,0,0
2022-11-02 15:49:21,989,52,-228,0,0,-1,-5,4,-27,34.2,36.75,1018.22,0,0
2022-11-02 15:49:21,1005,56,-203,-1,0,0,-5,3,-22,34.2,36.75,1018.21,0,0
2022-11-02 15:49:21,1005,56,-203,-1,0,0,-5,3,-22,34.2,36.75,1018.21,0,0
2022-11-02 15:49:21,1005,56,-203,-1,0,0,-5,3,-22,34.2,36.75,1018.21,0,0
2022-11-02 15:49:21,1005,56,-203,-1,0,0,-5,3,-22,34.2,36.75,1018.21,0,0
2022-11-02 15:49:21,1005,56,-203,-1,0,0,-5,3,-22,34.2,36.75,1018.21,0,0
2022-11-02 15:49:21,1005,56,-203,-1,0,0,-5,3,-22,34.2,36.75,1018.21,0,0
2022-11-02 15:49:21,1005,56,-203,-1,0,0,-5,3,-22,34.2,36.75,1018.21,0,0
2022-11-02 15:49:21,1005,56,-203,-1,0,0,-5,3,-22,34.2,36.75,1018.21,0,0
2022-11-02 15:49:21,1005,56,-203,-1,0,0,-5,3,-22,34.2,36.75,1018.21,0,0
2022-11-02 15:49:21,1005,56,-203,-1,0,0,-5,3,-22,34.2,36.75,1018.21,0,0
2022-11-02 15:49:21,1001,68,-230,0,0,0,-5,4,-19,34.2,36.75,1018.21,0,0
2022-11-02 15:49:21,1001,68,-230,0,0,0,-5,4,-19,34.2,36.75,1018.21,0,0
2022-11-02 15:49:21,1001,68,-230,0,0,0,-5,4,-19,34.2,36.75,1018.21,0,0
2022-11-02 15:49:21,1001,68,-230,0,0,0,-5,4,-19,34.2,36.75,1018.21,0,0
2022-11-02 15:49:21,1001,68,-230,0,0,0,-5,4,-19,34.2,36.75,1018.21,0,0
2022-11-02 15:49:21,1001,68,-230,0,0,0,-5,4,-19,34.2,36.75,1018.21,0,0
2022-11-02 15:49:21,1001,68,-230,0,0,0,-5,4,-19,34.2,36.75,1018.21,0,0
2022-11-02 15:49:21,1001,68,-230,0,0,0,-5,4,-19,34.2,36.75,1018.21,0,0
2022-11-02 15:49:21,1001,68,-230,0,0,0,-5,4,-19,34.2,36.75,1018.21,0,0
2022-11-02 15:49:21,1001,68,-230,0,0,0,-5,4,-19,34.2,36.75,1018.21,0,0
2022-11-02 15:49:21,999,50,-204,0,1,0,-4,5,-22,34.2,36.75,1018.21,0,0
2022-11-02 15:49:21,999,50,-204,0,1,0,-4,5,-22,34.2,36.75,1018.21,0,0
2022-11-02 15:49:21,999,50,-204,0,1,0,-4,5,-22,34.2,36.75,1018.21,0,0
2022-11-02 15:49:21,999,50,-204,0,1,0,-4,5,-22,34.2,36.75,1018.21,0,0
2022-11-02 15:49:21,999,50,-204,0,1,0,-4,5,-22,34.2,36.75,1018.21,0,0
2022-11-02 15:49:21,999,50,-204,0,1,0,-4,5,-22,34.2,36.75,1018.21,0,0
2022-11-02 15:49:21,999,50,-204,0,1,0,-4,5,-22,34.2,36.75,1018.21,0,0
2022-11-02 15:49:21,999,50,-204,0,1,0,-4,5,-22,34.2,36.75,1018.21,0,0
2022-11-02 15:49:21,999,50,-204,0,1,0,-4,5,-22,34.2,36.75,1018.21,0,0
2022-11-02 15:49:21,999,50,-204,0,1,0,-4,5,-22,34.2,36.75,1018.21,0,0
2022-11-02 15:49:21,1001,50,-212,0,0,0,-2,5,-21,34.2,36.75,1018.21,0,0
2022-11-02 15:49:21,1001,50,-212,0,0,0,-2,5,-21,34.2,36.75,1018.21,0,0
2022-11-02 15:49:21,1001,50,-212,0,0,0,-2,5,-21,34.2,36.75,1018.21,0,0
2022-11-02 15:49:21,1001,50,-212,0,0,0,-2,5,-21,34.2,36.75,1018.21,0,0
2022-11-02 15:49:21,1001,50,-212,0,0,0,-2,5,-21,34.2,36.75,1018.21,0,0
2022-11-02 15:49:21,1001,50,-212,0,0,0,-2,5,-21,34.2,36.75,1018.21,0,0
2022-11-02 15:49:21,1001,50,-212,0,0,0,-2,5,-21,34.2,36.75,1018.21,0,0
2022-11-02 15:49:21,1001,50,-212,0,0,0,-2,5,-21,34.2,36.75,1018.21,0,0
2022-11-02 15:49:21,1001,50,-212,0,0,0,-2,5,-21,34.2,36.75,1018.21,0,0
2022-11-02 15:49:21,1001,50,-212,0,0,0,-2,5,-21,34.2,36.75,1018.21,0,0
2022-11-02 15:49:21,999,72,-224,0,0,0,-5,3,-25,34.2,36.75,1018.21,0,0
2022-11-02 15:49:21,999,72,-224,0,0,0,-5,3,-25,34.2,36.75,1018.21,0,0
2022-11-02 15:49:21,999,72,-224,0,0,0,-5,3,-25,34.2,36.75,1018.21,0,0
2022-11-02 15:49:21,999,72,-224,0,0,0,-5,3,-25,34.2,36.75,1018.21,0,0
2022-11-02 15:49:21,999,72,-224,0,0,0,-5,3,-25,34.2,36.75,1018.21,0,0
2022-11-02 15:49:21,999,72,-224,0,0,0,-5,3,-25,34.2,36.75,1018.21,0,0
2022-11-02 15:49:21,999,72,-224,0,0,0,-5,3,-25,34.2,36.75,1018.21,0,0
2022-11-02 15:49:21,999,72,-224,0,0,0,-5,3,-25,34.2,36.75,1018.21,0,0
2022-11-02 15:49:21,999,72,-224,0,0,0,-5,3,-25,34.2,36.75,1018.21,0,0
2022-11-02 15:49:21,999,72,-224,0,0,0,-5,3,-25,34.2,36.75,1018.21,0,0
2022-11-02 15:49:21,1003,37,-220,-1,1,0,-5,4,-22,34.2,36.75,1018.21,0,0
2022-11-02 15:49:21,1003,37,-220,-1,1,0,-5,4,-22,34.2,36.75,1018.21,0,0
2022-11-02 15:49:21,1003,37,-220,-1,1,0,-5,4,-22,34.2,36.75,1018.21,0,0
2022-11-02 15:49:21,1003,37,-220,-1,1,0,-5,4,-22,34.2,36.75,1018.21,0,0
2022-11-02 15:49:21,1003,37,-220,-1,1,0,-5,4,-22,34.2,36.75,1018.21,0,0
2022-11-02 15:49:21,1003,37,-220,-1,1,0,-5,4,-22,34.2,36.75,1018.21,0,0
2022-11-02 15:49:21,1003,37,-220,-1,1,0,-5,4,-22,34.2,36.75,1018.21,0,0
2022-11-02 15:49:21,1003,37,-220,-1,1,0,-5,4,-22,34.2,36.75,1018.21,0,0
2022-11-02 15:49:21,1003,37,-220,-1,1,0,-5,4,-22,34.2,36.75,1018.21,0,0
2022-11-02 15:49:21,1003,37,-220,-1,1,0,-5,4,-22,34.2,36.75,1018.21,0,0
2022-11-02 15:49:21,999,60,-218,0,0,0,-3,4,-22,34.2,36.75,1018.21,0,0
2022-11-02 15:49:21,999,60,-218,0,0,0,-3,4,-22,34.2,36.75,1018.21,0,0
2022-11-02 15:49:21,999,60,-218,0,0,0,-3,4,-22,34.2,36.75,1018.21,0,0
2022-11-02 15:49:21,999,60,-218,0,0,0,-3,4,-22,34.2,36.75,1018.21,0,0
2022-11-02 15:49:21,999,60,-218,0,0,0,-3,4,-22,34.2,36.75,1018.21,0,0
2022-11-02 15:49:21,999,60,-218,0,0,0,-3,4,-22,34.2,36.75,1018.21,0,0
2022-11-02 15:49:21,999,60,-218,0,0,0,-3,4,-22,34.2,36.75,1018.21,0,0
2022-11-02 15:49:21,999,60,-218,0,0,0,-3,4,-22,34.2,36.75,1018.21,0,0
2022-11-02 15:49:21,999,60,-218,0,0,0,-3,4,-22,34.2,36.75,1018.21,0,0
2022-11-02 15:49:21,999,60,-218,0,0,0,-3,4,-22,34.2,36.75,1018.21,0,0
2022-11-02 15:49:21,1003,56,-206,0,1,0,-4,5,-20,34.2,36.75,1018.21,0,0
2022-11-02 15:49:21,1003,56,-206,0,1,0,-4,5,-20,34.2,36.75,1018.21,0,0
2022-11-02 15:49:21,1003,56,-206,0,1,0,-4,5,-20,34.2,36.75,1018.21,0,0
2022-11-02 15:49:21,1003,56,-206,0,1,0,-4,5,-20,34.2,36.75,1018.21,0,0
2022-11-02 15:49:21,1003,56,-206,0,1,0,-4,5,-20,34.2,36.75,1018.21,0,0
2022-11-02 15:49:21,1003,56,-206,0,1,0,-4,5,-20,34.2,36.75,1018.21,0,0
2022-11-02 15:49:21,1003,56,-206,0,1,0,-4,5,-20,34.2,36.75,1018.21,0,0
2022-11-02 15:49:21,1003,56,-206,0,1,0,-4,5,-20,34.2,36.75,1018.21,0,0
2022-11-02 15:49:21,1003,56,-206,0,1,0,-4,5,-20,34.2,36.75,1018.21,0,0
2022-11-02 15:49:21,1003,56,-206,0,1,0,-4,5,-20,34.2,36.75,1018.21,0,0
2022-11-02 15:49:22,995,46,-212,0,0,0,-3,4,-25,34.2,36.75,1018.21,0,0
2022-11-02 15:49:22,995,46,-212,0,0,0,-3,4,-25,34.2,36.75,1018.21,0,0
2022-11-02 15:49:22,995,46,-212,0,0,0,-3,4,-25,34.2,36.75,1018.21,0,0
2022-11-02 15:49:22,995,46,-212,0,0,0,-3,4,-25,34.2,36.75,1018.21,0,0
2022-11-02 15:49:22,995,46,-212,0,0,0,-3,4,-25,34.2,36.75,1018.21,0,0
2022-11-02 15:49:22,995,46,-212,0,0,0,-3,4,-25,34.2,36.75,1018.21,0,0
2022-11-02 15:49:22,995,46,-212,0,0,0,-3,4,-25,34.2,36.75,1018.21,0,0
2022-11-02 15:49:22,995,46,-212,0,0,0,-3,4,-25,34.2,36.75,1018.21,0,0
2022-11-02 15:49:22,995,46,-212,0,0,0,-3,4,-25,34.2,36.75,1018.21,0,0
2022-11-02 15:49:22,995,46,-212,0,0,0,-3,4,-25,34.2,36.75,1018.21,0,0
2022-11-02 15:49:22,1001,58,-214,-1,0,-1,-5,4,-24,34.2,36.75,1018.21,0,0
2022-11-02 15:49:22,1001,58,-214,-1,0,-1,-5,4,-24,34.2,36.75,1018.21,0,0
2022-11-02 15:49:22,1001,58,-214,-1,0,-1,-5,4,-24,34.2,36.75,1018.21,0,0
2022-11-02 15:49:22,1001,58,-214,-1,0,-1,-5,4,-24,34.2,36.75,1018.21,0,0
2022-11-02 15:49:22,1001,58,-214,-1,0,-1,-5,4,-24,34.2,36.75,1018.21,0,0
2022-11-02 15:49:22,1001,58,-214,-1,0,-1,-5,4,-24,34.2,36.75,1018.21,0,0
2022-11-02 15:49:22,1001,58,-214,-1,0,-1,-5,4,-24,34.2,36.75,1018.21,0,0
2022-11-02 15:49:22,1001,58,-214,-1,0,-1,-5,4,-24,34.2,36.75,1018.21,0,0
2022-11-02 15:49:22,1001,58,-214,-1,0,-1,-5,4,-24,34.2,36.75,1018.21,0,0
2022-11-02 15:49:22,1001,58,-214,-1,0,-1,-5,4,-24,34.2,36.75,1018.21,0,0
2022-11-02 15:49:22,1005,74,-203,0,0,0,-8,4,-20,34.2,36.74,1018.25,0,0
2022-11-02 15:49:22,1005,74,-203,0,0,0,-8,4,-20,34.2,36.74,1018.25,0,0
2022-11-02 15:49:22,1005,74,-203,0,0,0,-8,4,-20,34.2,36.74,1018.25,0,0
2022-11-02 15:49:22,1005,74,-203,0,0,0,-8,4,-20,34.2,36.74,1018.25,0,0
2022-11-02 15:49:22,1005,74,-203,0,0,0,-8,4,-20,34.2,36.74,1018.25,0,0
2022-11-02 15:49:22,1005,74,-203,0,0,0,-8,4,-20,34.2,36.74,1018.25,0,0
2022-11-02 15:49:22,1005,74,-203,0,0,0,-8,4,-20,34.2,36.74,1018.25,0,0
2022-11-02 15:49:22,1005,74,-203,0,0,0,-8,4,-20,34.2,36.74,1018.25,0,0
2022-11-02 15:49:22,1005,74,-203,0,0,0,-8,4,-20,34.2,36.74,1018.25,0,0
2022-11-02 15:49:22,1005,74,-203,0,0,0,-8,4,-20,34.2,36.74,1018.25,0,0
2022-11-02 15:49:22,997,66,-216,0,0,0,-5,4,-21,34.2,36.74,1018.25,0,0
2022-11-02 15:49:22,997,66,-216,0,0,0,-5,4,-21,34.2,36.74,1018.25,0,0
2022-11-02 15:49:22,997,66,-216,0,0,0,-5,4,-21,34.2,36.74,1018.25,0,0
2022-11-02 15:49:22,997,66,-216,0,0,0,-5,4,-21,34.2,36.74,1018.25,0,0
2022-11-02 15:49:22,997,66,-216,0,0,0,-5,4,-21,34.2,36.74,1018.25,0,0
2022-11-02 15:49:22,997,66,-216,0,0,0,-5,4,-21,34.2,36.74,1018.25,0,0
2022-11-02 15:49:22,997,66,-216,0,0,0,-5,4,-21,34.2,36.74,1018.25,0,0
2022-11-02 15:49:22,997,66,-216,0,0,0,-5,4,-21,34.2,36.74,1018.25,0,0
2022-11-02 15:49:22,997,66,-216,0,0,0,-5,4,-21,34.2,36.74,1018.25,0,0
2022-11-02 15:49:22,997,66,-216,0,0,0,-5,4,-21,34.2,36.74,1018.25,0,0
2022-11-02 15:49:22,993,58,-208,0,0,0,-5,2,-18,34.2,36.74,1018.25,0,0
2022-11-02 15:49:22,993,58,-208,0,0,0,-5,2,-18,34.2,36.74,1018.25,0,0
2022-11-02 15:49:22,993,58,-208,0,0,0,-5,2,-18,34.2,36.74,1018.25,0,0
2022-11-02 15:49:22,993,58,-208,0,0,0,-5,2,-18,34.2,36.74,1018.25,0,0
2022-11-02 15:49:22,993,58,-208,0,0,0,-5,2,-18,34.2,36.74,1018.25,0,0
2022-11-02 15:49:22,993,58,-208,0,0,0,-5,2,-18,34.2,36.74,1018.25,0,0
2022-11-02 15:49:22,993,58,-208,0,0,0,-5,2,-18,34.2,36.74,1018.25,0,0
2022-11-02 15:49:22,993,58,-208,0,0,0,-5,2,-18,34.2,36.74,1018.25,0,0
2022-11-02 15:49:22,993,58,-208,0,0,0,-5,2,-18,34.2,36.74,1018.25,0,0
2022-11-02 15:49:22,993,58,-208,0,0,0,-5,2,-18,34.2,36.74,1018.25,0,0
2022-11-02 15:49:22,989,60,-230,0,0,0,-4,4,-19,34.2,36.74,1018.25,0,0
2022-11-02 15:49:22,989,60,-230,0,0,0,-4,4,-19,34.2,36.74,1018.25,0,0
2022-11-02 15:49:22,989,60,-230,0,0,0,-4,4,-19,34.2,36.74,1018.25,0,0
2022-11-02 15:49:22,989,60,-230,0,0,0,-4,4,-19,34.2,36.74,1018.25,0,0
2022-11-02 15:49:22,989,60,-230,0,0,0,-4,4,-19,34.2,36.74,1018.25,0,0
2022-11-02 15:49:22,989,60,-230,0,0,0,-4,4,-19,34.2,36.74,1018.25,0,0
2022-11-02 15:49:22,989,60,-230,0,0,0,-4,4,-19,34.2,36.74,1018.25,0,0
2022-11-02 15:49:22,989,60,-230,0,0,0,-4,4,-19,34.2,36.74,1018.25,0,0
2022-11-02 15:49:22,989,60,-230,0,0,0,-4,4,-19,34.2,36.74,1018.25,0,0
2022-11-02 15:49:22,989,60,-230,0,0,0,-4,4,-19,34.2,36.74,1018.25,0,0
2022-11-02 15:49:22,993,66,-210,0,0,0,-5,5,-22,34.2,36.74,1018.25,0,0
2022-11-02 15:49:22,993,66,-210,0,0,0,-5,5,-22,34.2,36.74,1018.25,0,0
2022-11-02 15:49:22,993,66,-210,0,0,0,-5,5,-22,34.2,36.74,1018.25,0,0
2022-11-02 15:49:22,993,66,-210,0,0,0,-5,5,-22,34.2,36.74,1018.25,0,0
2022-11-02 15:49:22,993,66,-210,0,0,0,-5,5,-22,34.2,36.74,1018.25,0,0
2022-11-02 15:49:22,993,66,-210,0,0,0,-5,5,-22,34.2,36.74,1018.25,0,0
2022-11-02 15:49:22,993,66,-210,0,0,0,-5,5,-22,34.2,36.74,1018.25,0,0
2022-11-02 15:49:22,993,66,-210,0,0,0,-5,5,-22,34.2,36.74,1018.25,0,0
2022-11-02 15:49:22,993,66,-210,0,0,0,-5,5,-22,34.2,36.74,1018.25,0,0
2022-11-02 15:49:22,993,66,-210,0,0,0,-5,5,-22,34.2,36.74,1018.25,0,0
2022-11-02 15:49:22,1003,56,-201,0,0,0,-5,2,-25,34.2,36.74,1018.25,0,0
2022-11-02 15:49:22,1003,56,-201,0,0,0,-5,2,-25,34.2,36.74,1018.25,0,0
2022-11-02 15:49:22,1003,56,-201,0,0,0,-5,2,-25,34.2,36.74,1018.25,0,0
2022-11-02 15:49:22,1003,56,-201,0,0,0,-5,2,-25,34.2,36.74,1018.25,0,0
2022-11-02 15:49:22,1003,56,-201,0,0,0,-5,2,-25,34.2,36.74,1018.25,0,0
2022-11-02 15:49:22,1003,56,-201,0,0,0,-5,2,-25,34.2,36.74,1018.25,0,0
2022-11-02 15:49:22,1003,56,-201,0,0,0,-5,2,-25,34.2,36.74,1018.25,0,0
2022-11-02 15:49:22,1003,56,-201,0,0,0,-5,2,-25,34.2,36.74,1018.25,0,0
2022-11-02 15:49:22,1003,56,-201,0,0,0,-5,2,-25,34.2,36.74,1018.25,0,0
2022-11-02 15:49:22,1003,56,-201,0,0,0,-5,2,-25,34.2,36.74,1018.25,0,0
2022-11-02 15:49:22,993,62,-222,0,0,0,-5,6,-24,34.2,36.74,1018.25,0,0
2022-11-02 15:49:22,993,62,-222,0,0,0,-5,6,-24,34.2,36.74,1018.25,0,0
2022-11-02 15:49:22,993,62,-222,0,0,0,-5,6,-24,34.2,36.74,1018.25,0,0
2022-11-02 15:49:22,993,62,-222,0,0,0,-5,6,-24,34.2,36.74,1018.25,0,0
2022-11-02 15:49:22,993,62,-222,0,0,0,-5,6,-24,34.2,36.74,1018.25,0,0
2022-11-02 15:49:22,993,62,-222,0,0,0,-5,6,-24,34.2,36.74,1018.25,0,0
2022-11-02 15:49:22,993,62,-222,0,0,0,-5,6,-24,34.2,36.74,1018.25,0,0
2022-11-02 15:49:22,993,62,-222,0,0,0,-5,6,-24,34.2,36.74,1018.25,0,0
2022-11-02 15:49:22,993,62,-222,0,0,0,-5,6,-24,34.2,36.74,1018.25,0,0
2022-11-02 15:49:22,993,62,-222,0,0,0,-5,6,-24,34.2,36.74,1018.25,0,0
2022-11-02 15:49:22,1003,64,-218,0,0,0,-4,4,-22,34.2,36.74,1018.25,0,0
2022-11-02 15:49:22,1003,64,-218,0,0,0,-4,4,-22,34.2,36.74,1018.25,0,0
2022-11-02 15:49:22,1003,64,-218,0,0,0,-4,4,-22,34.2,36.74,1018.25,0,0
2022-11-02 15:49:22,1003,64,-218,0,0,0,-4,4,-22,34.2,36.74,1018.25,0,0
2022-11-02 15:49:22,1003,64,-218,0,0,0,-4,4,-22,34.2,36.74,1018.25,0,0
2022-11-02 15:49:22,1003,64,-218,0,0,0,-4,4,-22,34.2,36.74,1018.25,0,0
2022-11-02 15:49:22,1003,64,-218,0,0,0,-4,4,-22,34.2,36.74,1018.25,0,0
2022-11-02 15:49:22,1003,64,-218,0,0,0,-4,4,-22,34.2,36.74,1018.25,0,0
2022-11-02 15:49:22,1003,64,-218,0,0,0,-4,4,-22,34.2,36.74,1018.25,0,0
2022-11-02 15:49:22,1003,64,-218,0,0,0,-4,4,-22,34.2,36.74,1018.25,0,0
2022-11-02 15:49:23,999,64,-214,0,0,0,-5,4,-22,34.2,36.74,1018.25,0,0
2022-11-02 15:49:23,999,64,-214,0,0,0,-5,4,-22,34.2,36.74,1018.25,0,0
2022-11-02 15:49:23,999,64,-214,0,0,0,-5,4,-22,34.2,36.74,1018.25,0,0
2022-11-02 15:49:23,999,64,-214,0,0,0,-5,4,-22,34.2,36.74,1018.25,0,0
2022-11-02 15:49:23,999,64,-214,0,0,0,-5,4,-22,34.2,36.74,1018.25,0,0
2022-11-02 15:49:23,999,64,-214,0,0,0,-5,4,-22,34.2,36.74,1018.25,0,0
2022-11-02 15:49:23,999,64,-214,0,0,0,-5,4,-22,34.2,36.74,1018.25,0,0
2022-11-02 15:49:23,999,64,-214,0,0,0,-5,4,-22,34.2,36.74,1018.25,0,0
2022-11-02 15:49:23,999,64,-214,0,0,0,-5,4,-22,34.2,36.74,1018.25,0,0
2022-11-02 15:49:23,999,64,-214,0,0,0,-5,4,-22,34.2,36.74,1018.25,0,0
2022-11-02 15:49:23,997,60,-226,0,0,0,-4,4,-23,34.2,36.74,1018.25,0,0
2022-11-02 15:49:23,997,60,-226,0,0,0,-4,4,-23,34.2,36.74,1018.25,0,0
2022-11-02 15:49:23,997,60,-226,0,0,0,-4,4,-23,34.2,36.74,1018.25,0,0
2022-11-02 15:49:23,997,60,-226,0,0,0,-4,4,-23,34.2,36.74,1018.25,0,0
2022-11-02 15:49:23,997,60,-226,0,0,0,-4,4,-23,34.2,36.74,1018.25,0,0
2022-11-02 15:49:23,997,60,-226,0,0,0,-4,4,-23,34.2,36.74,1018.25,0,0
2022-11-02 15:49:23,997,60,-226,0,0,0,-4,4,-23,34.2,36.74,1018.25,0,0
2022-11-02 15:49:23,997,60,-226,0,0,0,-4,4,-23,34.2,36.74,1018.25,0,0
2022-11-02 15:49:23,997,60,-226,0,0,0,-4,4,-23,34.2,36.74,1018.25,0,0
2022-11-02 15:49:23,997,60,-226,0,0,0,-4,4,-23,34.2,36.74,1018.25,0,0
2022-11-02 15:49:23,993,72,-216,0,0,0,-4,5,-24,34.2,36.74,1018.25,0,0
2022-11-02 15:49:23,993,72,-216,0,0,0,-4,5,-24,34.2,36.74,1018.25,0,0
2022-11-02 15:49:23,993,72,-216,0,0,0,-4,5,-24,34.2,36.74,1018.25,0,0
2022-11-02 15:49:23,993,72,-216,0,0,0,-4,5,-24,34.2,36.74,1018.25,0,0
2022-11-02 15:49:23,993,72,-216,0,0,0,-4,5,-24,34.2,36.74,1018.25,0,0
2022-11-02 15:49:23,993,72,-216,0,0,0,-4,5,-24,34.2,36.74,1018.25,0,0
2022-11-02 15:49:23,993,72,-216,0,0,0,-4,5,-24,34.2,36.74,1018.25,0,0
2022-11-02 15:49:23,993,72,-216,0,0,0,-4,5,-24,34.2,36.74,1018.25,0,0
2022-11-02 15:49:23,993,72,-216,0,0,0,-4,5,-24,34.2,36.74,1018.25,0,0
2022-11-02 15:49:23,993,72,-216,0,0,0,-4,5,-24,34.2,36.74,1018.25,0,0
2022-11-02 15:49:23,1003,64,-214,0,0,0,-5,3,-29,34.2,36.74,1018.25,0,0
2022-11-02 15:49:23,1003,64,-214,0,0,0,-5,3,-29,34.2,36.74,1018.25,0,0
2022-11-02 15:49:23,1003,64,-214,0,0,0,-5,3,-29,34.2,36.74,1018.25,0,0
2022-11-02 15:49:23,1003,64,-214,0,0,0,-5,3,-29,34.2,36.74,1018.25,0,0
2022-11-02 15:49:23,1003,64,-214,0,0,0,-5,3,-29,34.2,36.74,1018.25,0,0
2022-11-02 15:49:23,1003,64,-214,0,0,0,-5,3,-29,34.2,36.74,1018.25,0,0
2022-11-02 15:49:23,1003,64,-214,0,0,0,-5,3,-29,34.2,36.74,1018.25,0,0
2022-11-02 15:49:23,1003,64,-214,0,0,0,-5,3,-29,34.2,36.74,1018.25,0,0
2022-11-02 15:49:23,1003,64,-214,0,0,0,-5,3,-29,34.2,36.74,1018.25,0,0
2022-11-02 15:49:23,1003,64,-214,0,0,0,-5,3,-29,34.2,36.74,1018.25,0,0
2022-11-02 15:49:23,1001,60,-226,0,0,0,-5,6,-22,34.2,36.74,1018.25,0,0
2022-11-02 15:49:23,1001,60,-226,0,0,0,-5,6,-22,34.2,36.74,1018.25,0,0
2022-11-02 15:49:23,1001,60,-226,0,0,0,-5,6,-22,34.2,36.74,1018.25,0,0
2022-11-02 15:49:23,1001,60,-226,0,0,0,-5,6,-22,34.2,36.74,1018.25,0,0
2022-11-02 15:49:23,1001,60,-226,0,0,0,-5,6,-22,34.2,36.74,1018.25,0,0
2022-11-02 15:49:23,1001,60,-226,0,0,0,-5,6,-22,34.2,36.74,1018.25,0,0
2022-11-02 15:49:23,1001,60,-226,0,0,0,-5,6,-22,34.2,36.74,1018.25,0,0
2022-11-02 15:49:23,1001,60,-226,0,0,0,-5,6,-22,34.2,36.74,1018.25,0,0
2022-11-02 15:49:23,1001,60,-226,0,0,0,-5,6,-22,34.2,36.74,1018.25,0,0
2022-11-02 15:49:23,1001,60,-226,0,0,0,-5,6,-22,34.2,36.74,1018.25,0,0
2022-11-02 15:49:23,1005,74,-212,0,0,0,-6,2,-19,34.2,36.74,1018.25,0,0
2022-11-02 15:49:23,1005,74,-212,0,0,0,-6,2,-19,34.2,36.74,1018.25,0,0
2022-11-02 15:49:23,1005,74,-212,0,0,0,-6,2,-19,34.2,36.74,1018.25,0,0
2022-11-02 15:49:23,1005,74,-212,0,0,0,-6,2,-19,34.2,36.74,1018.25,0,0
2022-11-02 15:49:23,1005,74,-212,0,0,0,-6,2,-19,34.2,36.74,1018.25,0,0
2022-11-02 15:49:23,1005,74,-212,0,0,0,-6,2,-19,34.2,36.74,1018.25,0,0
2022-11-02 15:49:23,1005,74,-212,0,0,0,-6,2,-19,34.2,36.74,1018.25,0,0
2022-11-02 15:49:23,1005,74,-212,0,0,0,-6,2,-19,34.2,36.74,1018.25,0,0
2022-11-02 15:49:23,1005,74,-212,0,0,0,-6,2,-19,34.2,36.74,1018.25,0,0
2022-11-02 15:49:23,1005,74,-212,0,0,0,-6,2,-19,34.2,36.74,1018.25,0,0
2022-11-02 15:49:23,991,60,-222,0,0,0,-6,3,-21,34.2,36.74,1018.25,0,0
2022-11-02 15:49:23,991,60,-222,0,0,0,-6,3,-21,34.2,36.74,1018.25,0,0
2022-11-02 15:49:23,991,60,-222,0,0,0,-6,3,-21,34.2,36.74,1018.25,0,0
2022-11-02 15:49:23,991,60,-222,0,0,0,-6,3,-21,34.2,36.74,1018.25,0,0
2022-11-02 15:49:23,991,60,-222,0,0,0,-6,3,-21,34.2,36.74,1018.25,0,0
2022-11-02 15:49:23,991,60,-222,0,0,0,-6,3,-21,34.2,36.74,1018.25,0,0
2022-11-02 15:49:23,991,60,-222,0,0,0,-6,3,-21,34.2,36.74,1018.25,0,0
2022-11-02 15:49:23,991,60,-222,0,0,0,-6,3,-21,34.2,36.74,1018.25,0,0
2022-11-02 15:49:23,991,60,-222,0,0,0,-6,3,-21,34.2,36.74,1018.25,0,0
2022-11-02 15:49:23,991,60,-222,0,0,0,-6,3,-21,34.2,36.74,1018.25,0,0
2022-11-02 15:49:23,995,60,-220,0,0,0,-7,4,-22,34.2,36.74,1018.25,0,0
2022-11-02 15:49:23,995,60,-220,0,0,0,-7,4,-22,34.2,36.74,1018.25,0,0
2022-11-02 15:49:23,995,60,-220,0,0,0,-7,4,-22,34.2,36.74,1018.25,0,0
2022-11-02 15:49:23,995,60,-220,0,0,0,-7,4,-22,34.2,36.74,1018.25,0,0
2022-11-02 15:49:23,995,60,-220,0,0,0,-7,4,-22,34.2,36.74,1018.25,0,0
2022-11-02 15:49:23,995,60,-220,0,0,0,-7,4,-22,34.2,36.74,1018.25,0,0
2022-11-02 15:49:23,995,60,-220,0,0,0,-7,4,-22,34.2,36.74,1018.25,0,0
2022-11-02 15:49:23,995,60,-220,0,0,0,-7,4,-22,34.2,36.74,1018.25,0,0
2022-11-02 15:49:23,995,60,-220,0,0,0,-7,4,-22,34.2,36.74,1018.25,0,0
2022-11-02 15:49:23,995,60,-220,0,0,0,-7,4,-22,34.2,36.74,1018.25,0,0
2022-11-02 15:49:23,995,70,-218,0,0,0,-5,3,-23,34.2,36.74,1018.25,0,0
2022-11-02 15:49:23,995,70,-218,0,0,0,-5,3,-23,34.2,36.74,1018.25,0,0
2022-11-02 15:49:23,995,70,-218,0,0,0,-5,3,-23,34.2,36.74,1018.25,0,0
2022-11-02 15:49:23,995,70,-218,0,0,0,-5,3,-23,34.2,36.74,1018.25,0,0
2022-11-02 15:49:23,995,70,-218,0,0,0,-5,3,-23,34.2,36.74,1018.25,0,0
2022-11-02 15:49:23,995,70,-218,0,0,0,-5,3,-23,34.2,36.74,1018.25,0,0
2022-11-02 15:49:23,995,70,-218,0,0,0,-5,3,-23,34.2,36.74,1018.25,0,0
2022-11-02 15:49:23,995,70,-218,0,0,0,-5,3,-23,34.2,36.74,1018.25,0,0
2022-11-02 15:49:23,995,70,-218,0,0,0,-5,3,-23,34.2,36.74,1018.25,0,0
2022-11-02 15:49:23,995,70,-218,0,0,0,-5,3,-23,34.2,36.74,1018.25,0,0
2022-11-02 15:49:23,1001,66,-226,0,0,0,-5,3,-25,34.2,36.74,1018.25,0,0
2022-11-02 15:49:23,1001,66,-226,0,0,0,-5,3,-25,34.2,36.74,1018.25,0,0
2022-11-02 15:49:23,1001,66,-226,0,0,0,-5,3,-25,34.2,36.74,1018.25,0,0
2022-11-02 15:49:23,1001,66,-226,0,0,0,-5,3,-25,34.2,36.74,1018.25,0,0
2022-11-02 15:49:23,1001,66,-226,0,0,0,-5,3,-25,34.2,36.74,1018.25,0,0
2022-11-02 15:49:23,1001,66,-226,0,0,0,-5,3,-25,34.2,36.74,1018.25,0,0
2022-11-02 15:49:23,1001,66,-226,0,0,0,-5,3,-25,34.2,36.74,1018.25,0,0
2022-11-02 15:49:23,1001,66,-226,0,0,0,-5,3,-25,34.2,36.74,1018.25,0,0
2022-11-02 15:49:23,1001,66,-226,0,0,0,-5,3,-25,34.2,36.74,1018.25,0,0
2022-11-02 15:49:23,1001,66,-226,0,0,0,-5,3,-25,34.2,36.74,1018.25,0,0
2022-11-02 15:49:24,993,62,-234,0,0,0,-7,4,-24,34.2,36.74,1018.25,0,0
2022-11-02 15:49:24,993,62,-234,0,0,0,-7,4,-24,34.2,36.74,1018.25,0,0
2022-11-02 15:49:24,993,62,-234,0,0,0,-7,4,-24,34.2,36.74,1018.25,0,0
2022-11-02 15:49:24,993,62,-234,0,0,0,-7,4,-24,34.2,36.74,1018.25,0,0
2022-11-02 15:49:24,993,62,-234,0,0,0,-7,4,-24,34.2,36.74,1018.25,0,0
2022-11-02 15:49:24,993,62,-234,0,0,0,-7,4,-24,34.2,36.74,1018.25,0,0
2022-11-02 15:49:24,993,62,-234,0,0,0,-7,4,-24,34.2,36.74,1018.25,0,0
2022-11-02 15:49:24,993,62,-234,0,0,0,-7,4,-24,34.2,36.74,1018.25,0,0
2022-11-02 15:49:24,993,62,-234,0,0,0,-7,4,-24,34.2,36.74,1018.25,0,0
2022-11-02 15:49:24,993,62,-234,0,0,0,-7,4,-24,34.2,36.74,1018.25,0,0
2022-11-02 15:49:24,993,70,-230,-1,1,0,-1,4,-24,34.2,36.74,1018.25,0,0
2022-11-02 15:49:24,993,70,-230,-1,1,0,-1,4,-24,34.2,36.74,1018.25,0,0
2022-11-02 15:49:24,993,70,-230,-1,1,0,-1,4,-24,34.2,36.74,1018.25,0,0
2022-11-02 15:49:24,993,70,-230,-1,1,0,-1,4,-24,34.2,36.74,1018.25,0,0
2022-11-02 15:49:24,993,70,-230,-1,1,0,-1,4,-24,34.2,36.74,1018.25,0,0
2022-11-02 15:49:24,993,70,-230,-1,1,0,-1,4,-24,34.2,36.74,1018.25,0,0
2022-11-02 15:49:24,993,70,-230,-1,1,0,-1,4,-24,34.2,36.74,1018.25,0,0
2022-11-02 15:49:24,993,70,-230,-1,1,0,-1,4,-24,34.2,36.74,1018.25,0,0
2022-11-02 15:49:24,993,70,-230,-1,1,0,-1,4,-24,34.2,36.74,1018.25,0,0
2022-11-02 15:49:24,993,70,-230,-1,1,0,-1,4,-24,34.2,36.74,1018.25,0,0
2022-11-02 15:49:24,995,54,-220,-1,1,1,-7,5,-20,34.2,36.74,1018.26,0,0
2022-11-02 15:49:24,995,54,-220,-1,1,1,-7,5,-20,34.2,36.74,1018.26,0,0
2022-11-02 15:49:24,995,54,-220,-1,1,1,-7,5,-20,34.2,36.74,1018.26,0,0
2022-11-02 15:49:24,995,54,-220,-1,1,1,-7,5,-20,34.2,36.74,1018.26,0,0
2022-11-02 15:49:24,995,54,-220,-1,1,1,-7,5,-20,34.2,36.74,1018.26,0,0
2022-11-02 15:49:24,995,54,-220,-1,1,1,-7,5,-20,34.2,36.74,1018.26,0,0
2022-11-02 15:49:24,995,54,-220,-1,1,1,-7,5,-20,34.2,36.74,1018.26,0,0
2022-11-02 15:49:24,995,54,-220,-1,1,1,-7,5,-20,34.2,36.74,1018.26,0,0
2022-11-02 15:49:24,995,54,-220,-1,1,1,-7,5,-20,34.2,36.74,1018.26,0,0
2022-11-02 15:49:24,995,54,-220,-1,1,1,-7,5,-20,34.2,36.74,1018.26,0,0
2022-11-02 15:49:24,995,56,-212,0,2,0,-5,4,-21,34.2,36.74,1018.26,0,0
2022-11-02 15:49:24,995,56,-212,0,2,0,-5,4,-21,34.2,36.74,1018.26,0,0
2022-11-02 15:49:24,995,56,-212,0,2,0,-5,4,-21,34.2,36.74,1018.26,0,0
2022-11-02 15:49:24,995,56,-212,0,2,0,-5,4,-21,34.2,36.74,1018.26,0,0
2022-11-02 15:49:24,995,56,-212,0,2,0,-5,4,-21,34.2,36.74,1018.26,0,0
2022-11-02 15:49:24,995,56,-212,0,2,0,-5,4,-21,34.2,36.74,1018.26,0,0
2022-11-02 15:49:24,995,56,-212,0,2,0,-5,4,-21,34.2,36.74,1018.26,0,0
2022-11-02 15:49:24,995,56,-212,0,2,0,-5,4,-21,34.2,36.74,1018.26,0,0
2022-11-02 15:49:24,995,56,-212,0,2,0,-5,4,-21,34.2,36.74,1018.26,0,0
2022-11-02 15:49:24,995,56,-212,0,2,0,-5,4,-21,34.2,36.74,1018.26,0,0
2022-11-02 15:49:24,999,60,-226,0,2,0,-5,3,-21,34.2,36.74,1018.26,0,0
2022-11-02 15:49:24,999,60,-226,0,2,0,-5,3,-21,34.2,36.74,1018.26,0,0
2022-11-02 15:49:24,999,60,-226,0,2,0,-5,3,-21,34.2,36.74,1018.26,0,0
2022-11-02 15:49:24,999,60,-226,0,2,0,-5,3,-21,34.2,36.74,1018.26,0,0
2022-11-02 15:49:24,999,60,-226,0,2,0,-5,3,-21,34.2,36.74,1018.26,0,0
2022-11-02 15:49:24,999,60,-226,0,2,0,-5,3,-21,34.2,36.74,1018.26,0,0
2022-11-02 15:49:24,999,60,-226,0,2,0,-5,3,-21,34.2,36.74,1018.26,0,0
2022-11-02 15:49:24,999,60,-226,0,2,0,-5,3,-21,34.2,36.74,1018.26,0,0
2022-11-02 15:49:24,999,60,-226,0,2,0,-5,3,-21,34.2,36.74,1018.26,0,0
2022-11-02 15:49:24,999,60,-226,0,2,0,-5,3,-21,34.2,36.74,1018.26,0,0
2022-11-02 15:49:24,999,60,-206,0,2,0,-5,4,-30,34.2,36.74,1018.26,0,0
2022-11-02 15:49:24,999,60,-206,0,2,0,-5,4,-30,34.2,36.74,1018.26,0,0
2022-11-02 15:49:24,999,60,-206,0,2,0,-5,4,-30,34.2,36.74,1018.26,0,0
2022-11-02 15:49:24,999,60,-206,0,2,0,-5,4,-30,34.2,36.74,1018.26,0,0
2022-11-02 15:49:24,999,60,-206,0,2,0,-5,4,-30,34.2,36.74,1018.26,0,0
2022-11-02 15:49:24,999,60,-206,0,2,0,-5,4,-30,34.2,36.74,1018.26,0,0
2022-11-02 15:49:24,999,60,-206,0,2,0,-5,4,-30,34.2,36.74,1018.26,0,0
2022-11-02 15:49:24,999,60,-206,0,2,0,-5,4,-30,34.2,36.74,1018.26,0,0
2022-11-02 15:49:24,999,60,-206,0,2,0,-5,4,-30,34.2,36.74,1018.26,0,0
2022-11-02 15:49:24,999,60,-206,0,2,0,-5,4,-30,34.2,36.74,1018.26,0,0
2022-11-02 15:49:24,1005,46,-195,0,1,0,-5,7,-25,34.2,36.74,1018.26,0,0
2022-11-02 15:49:24,1005,46,-195,0,1,0,-5,7,-25,34.2,36.74,1018.26,0,0
2022-11-02 15:49:24,1005,46,-195,0,1,0,-5,7,-25,34.2,36.74,1018.26,0,0
2022-11-02 15:49:24,1005,46,-195,0,1,0,-5,7,-25,34.2,36.74,1018.26,0,0
2022-11-02 15:49:24,1005,46,-195,0,1,0,-5,7,-25,34.2,36.74,1018.26,0,0
2022-11-02 15:49:24,1005,46,-195,0,1,0,-5,7,-25,34.2,36.74,1018.26,0,0
2022-11-02 15:49:24,1005,46,-195,0,1,0,-5,7,-25,34.2,36.74,1018.26,0,0
2022-11-02 15:49:24,1005,46,-195,0,1,0,-5,7,-25,34.2,36.74,1018.26,0,0
2022-11-02 15:49:24,1005,46,-195,0,1,0,-5,7,-25,34.2,36.74,1018.26,0,0
2022-11-02 15:49:24,1005,46,-195,0,1,0,-5,7,-25,34.2,36.74,1018.26,0,0
2022-11-02 15:49:24,1005,62,-208,0,0,0,-5,4,-22,34.2,36.74,1018.26,0,0
2022-11-02 15:49:24,1005,62,-208,0,0,0,-5,4,-22,34.2,36.74,1018.26,0,0
2022-11-02 15:49:24,1005,62,-208,0,0,0,-5,4,-22,34.2,36.74,1018.26,0,0
2022-11-02 15:49:24,1005,62,-208,0,0,0,-5,4,-22,34.2,36.74,1018.26,0,0
2022-11-02 15:49:24,1005,62,-208,0,0,0,-5,4,-22,34.2,36.74,1018.26,0,0
2022-11-02 15:49:24,1005,62,-208,0,0,0,-5,4,-22,34.2,36.74,1018.26,0,0
2022-11-02 15:49:24,1005,62,-208,0,0,0,-5,4,-22,34.2,36.74,1018.26,0,0
2022-11-02 15:49:24,1005,62,-208,0,0,0,-5,4,-22,34.2,36.74,1018.26,0,0
2022-11-02 15:49:24,1005,62,-208,0,0,0,-5,4,-22,34.2,36.74,1018.26,0,0
2022-11-02 15:49:24,1005,62,-208,0,0,0,-5,4,-22,34.2,36.74,1018.26,0,0
2022-11-02 15:49:24,995,54,-210,0,0,0,-4,4,-25,34.2,36.74,1018.26,0,0
2022-11-02 15:49:24,995,54,-210,0,0,0,-4,4,-25,34.2,36.74,1018.26,0,0
2022-11-02 15:49:24,995,54,-210,0,0,0,-4,4,-25,34.2,36.74,1018.26,0,0
2022-11-02 15:49:24,995,54,-210,0,0,0,-4,4,-25,34.2,36.74,1018.26,0,0
2022-11-02 15:49:24,995,54,-210,0,0,0,-4,4,-25,34.2,36.74,1018.26,0,0
2022-11-02 15:49:24,995,54,-210,0,0,0,-4,4,-25,34.2,36.74,1018.26,0,0
2022-11-02 15:49:24,995,54,-210,0,0,0,-4,4,-25,34.2,36.74,1018.26,0,0
2022-11-02 15:49:24,995,54,-210,0,0,0,-4,4,-25,34.2,36.74,1018.26,0,0
2022-11-02 15:49:24,995,54,-210,0,0,0,-4,4,-25,34.2,36.74,1018.26,0,0
2022-11-02 15:49:24,995,54,-210,0,0,0,-4,4,-25,34.2,36.74,1018.26,0,0
2022-11-02 15:49:24,999,60,-214,0,0,0,-5,5,-23,34.2,36.74,1018.26,0,0
2022-11-02 15:49:24,999,60,-214,0,0,0,-5,5,-23,34.2,36.74,1018.26,0,0
2022-11-02 15:49:24,999,60,-214,0,0,0,-5,5,-23,34.2,36.74,1018.26,0,0
2022-11-02 15:49:24,999,60,-214,0,0,0,-5,5,-23,34.2,36.74,1018.26,0,0
2022-11-02 15:49:24,999,60,-214,0,0,0,-5,5,-23,34.2,36.74,1018.26,0,0
2022-11-02 15:49:24,999,60,-214,0,0,0,-5,5,-23,34.2,36.74,1018.26,0,0
2022-11-02 15:49:24,999,60,-214,0,0,0,-5,5,-23,34.2,36.74,1018.26,0,0
2022-11-02 15:49:24,999,60,-214,0,0,0,-5,5,-23,34.2,36.74,1018.26,0,0
2022-11-02 15:49:24,999,60,-214,0,0,0,-5,5,-23,34.2,36.74,1018.26,0,0
2022-11-02 15:49:24,999,60,-214,0,0,0,-5,5,-23,34.2,36.74,1018.26,0,0
2022-11-02 15:49:25,991,54,-222,0,0,0,-4,5,-28,34.2,36.74,1018.26,0,0
2022-11-02 15:49:25,991,54,-222,0,0,0,-4,5,-28,34.2,36.74,1018.26,0,0
2022-11-02 15:49:25,991,54,-222,0,0,0,-4,5,-28,34.2,36.74,1018.26,0,0
2022-11-02 15:49:25,991,54,-222,0,0,0,-4,5,-28,34.2,36.74,1018.26,0,0
2022-11-02 15:49:25,991,54,-222,0,0,0,-4,5,-28,34.2,36.74,1018.26,0,0
2022-11-02 15:49:25,991,54,-222,0,0,0,-4,5,-28,34.2,36.74,1018.26,0,0
2022-11-02 15:49:25,991,54,-222,0,0,0,-4,5,-28,34.2,36.74,1018.26,0,0
2022-11-02 15:49:25,991,54,-222,0,0,0,-4,5,-28,34.2,36.74,1018.26,0,0
2022-11-02 15:49:25,991,54,-222,0,0,0,-4,5,-28,34.2,36.74,1018.26,0,0
2022-11-02 15:49:25,991,54,-222,0,0,0,-4,5,-28,34.2,36.74,1018.26,0,0
2022-11-02 15:49:25,999,66,-222,0,0,0,-4,5,-24,34.2,36.74,1018.26,0,0
2022-11-02 15:49:25,999,66,-222,0,0,0,-4,5,-24,34.2,36.74,1018.26,0,0
2022-11-02 15:49:25,999,66,-222,0,0,0,-4,5,-24,34.2,36.74,1018.26,0,0
2022-11-02 15:49:25,999,66,-222,0,0,0,-4,5,-24,34.2,36.74,1018.26,0,0
2022-11-02 15:49:25,999,66,-222,0,0,0,-4,5,-24,34.2,36.74,1018.26,0,0
2022-11-02 15:49:25,999,66,-222,0,0,0,-4,5,-24,34.2,36.74,1018.26,0,0
2022-11-02 15:49:25,999,66,-222,0,0,0,-4,5,-24,34.2,36.74,1018.26,0,0
2022-11-02 15:49:25,999,66,-222,0,0,0,-4,5,-24,34.2,36.74,1018.26,0,0
2022-11-02 15:49:25,999,66,-222,0,0,0,-4,5,-24,34.2,36.74,1018.26,0,0
2022-11-02 15:49:25,999,66,-222,0,0,0,-4,5,-24,34.2,36.74,1018.26,0,0
2022-11-02 15:49:25,993,54,-214,0,0,0,-3,8,-25,34.2,36.74,1018.25,0,0
2022-11-02 15:49:25,993,54,-214,0,0,0,-3,8,-25,34.2,36.74,1018.25,0,0
2022-11-02 15:49:25,993,54,-214,0,0,0,-3,8,-25,34.2,36.74,1018.25,0,0
2022-11-02 15:49:25,993,54,-214,0,0,0,-3,8,-25,34.2,36.74,1018.25,0,0
2022-11-02 15:49:25,993,54,-214,0,0,0,-3,8,-25,34.2,36.74,1018.25,0,0
2022-11-02 15:49:25,993,54,-214,0,0,0,-3,8,-25,34.2,36.74,1018.25,0,0
2022-11-02 15:49:25,993,54,-214,0,0,0,-3,8,-25,34.2,36.74,1018.25,0,0
2022-11-02 15:49:25,993,54,-214,0,0,0,-3,8,-25,34.2,36.74,1018.25,0,0
2022-11-02 15:49:25,993,54,-214,0,0,0,-3,8,-25,34.2,36.74,1018.25,0,0
2022-11-02 15:49:25,993,54,-214,0,0,0,-3,8,-25,34.2,36.74,1018.25,0,0
2022-11-02 15:49:25,997,64,-218,0,0,0,-7,1,-23,34.2,36.74,1018.25,0,0
2022-11-02 15:49:25,997,64,-218,0,0,0,-7,1,-23,34.2,36.74,1018.25,0,0
2022-11-02 15:49:25,997,64,-218,0,0,0,-7,1,-23,34.2,36.74,1018.25,0,0
2022-11-02 15:49:25,997,64,-218,0,0,0,-7,1,-23,34.2,36.74,1018.25,0,0
2022-11-02 15:49:25,997,64,-218,0,0,0,-7,1,-23,34.2,36.74,1018.25,0,0
2022-11-02 15:49:25,997,64,-218,0,0,0,-7,1,-23,34.2,36.74,1018.25,0,0
2022-11-02 15:49:25,997,64,-218,0,0,0,-7,1,-23,34.2,36.74,1018.25,0,0
2022-11-02 15:49:25,997,64,-218,0,0,0,-7,1,-23,34.2,36.74,1018.25,0,0
2022-11-02 15:49:25,997,64,-218,0,0,0,-7,1,-23,34.2,36.74,1018.25,0,0
2022-11-02 15:49:25,997,64,-218,0,0,0,-7,1,-23,34.2,36.74,1018.25,0,0
2022-11-02 15:49:25,999,70,-226,0,0,0,-6,4,-22,34.2,36.74,1018.25,0,0
2022-11-02 15:49:25,999,70,-226,0,0,0,-6,4,-22,34.2,36.74,1018.25,0,0
2022-11-02 15:49:25,999,70,-226,0,0,0,-6,4,-22,34.2,36.74,1018.25,0,0
2022-11-02 15:49:25,999,70,-226,0,0,0,-6,4,-22,34.2,36.74,1018.25,0,0
2022-11-02 15:49:25,999,70,-226,0,0,0,-6,4,-22,34.2,36.74,1018.25,0,0
2022-11-02 15:49:25,999,70,-226,0,0,0,-6,4,-22,34.2,36.74,1018.25,0,0
2022-11-02 15:49:25,999,70,-226,0,0,0,-6,4,-22,34.2,36.74,1018.25,0,0
2022-11-02 15:49:25,999,70,-226,0,0,0,-6,4,-22,34.2,36.74,1018.25,0,0
2022-11-02 15:49:25,999,70,-226,0,0,0,-6,4,-22,34.2,36.74,1018.25,0,0
2022-11-02 15:49:25,999,70,-226,0,0,0,-6,4,-22,34.2,36.74,1018.25,0,0
2022-11-02 15:49:25,993,56,-220,0,0,0,-5,5,-22,34.2,36.74,1018.25,0,0
2022-11-02 15:49:25,993,56,-220,0,0,0,-5,5,-22,34.2,36.74,1018.25,0,0
2022-11-02 15:49:25,993,56,-220,0,0,0,-5,5,-22,34.2,36.74,1018.25,0,0
2022-11-02 15:49:25,993,56,-220,0,0,0,-5,5,-22,34.2,36.74,1018.25,0,0
2022-11-02 15:49:25,993,56,-220,0,0,0,-5,5,-22,34.2,36.74,1018.25,0,0
2022-11-02 15:49:25,993,56,-220,0,0,0,-5,5,-22,34.2,36.74,1018.25,0,0
2022-11-02 15:49:25,993,56,-220,0,0,0,-5,5,-22,34.2,36.74,1018.25,0,0
2022-11-02 15:49:25,993,56,-220,0,0,0,-5,5,-22,34.2,36.74,1018.25,0,0
2022-11-02 15:49:25,993,56,-220,0,0,0,-5,5,-22,34.2,36.74,1018.25,0,0
2022-11-02 15:49:25,993,56,-220,0,0,0,-5,5,-22,34.2,36.74,1018.25,0,0
2022-11-02 15:49:25,1001,56,-218,0,0,0,-6,6,-24,34.2,36.74,1018.25,0,0
2022-11-02 15:49:25,1001,56,-218,0,0,0,-6,6,-24,34.2,36.74,1018.25,0,0
2022-11-02 15:49:25,1001,56,-218,0,0,0,-6,6,-24,34.2,36.74,1018.25,0,0
2022-11-02 15:49:25,1001,56,-218,0,0,0,-6,6,-24,34.2,36.74,1018.25,0,0
2022-11-02 15:49:25,1001,56,-218,0,0,0,-6,6,-24,34.2,36.74,1018.25,0,0
2022-11-02 15:49:25,1001,56,-218,0,0,0,-6,6,-24,34.2,36.74,1018.25,0,0
2022-11-02 15:49:25,1001,56,-218,0,0,0,-6,6,-24,34.2,36.74,1018.25,0,0
2022-11-02 15:49:25,1001,56,-218,0,0,0,-6,6,-24,34.2,36.74,1018.25,0,0
2022-11-02 15:49:25,1001,56,-218,0,0,0,-6,6,-24,34.2,36.74,1018.25,0,0
2022-11-02 15:49:25,1001,56,-218,0,0,0,-6,6,-24,34.2,36.74,1018.25,0,0
2022-11-02 15:49:25,993,56,-228,0,0,0,-4,4,-22,34.2,36.74,1018.25,0,0
2022-11-02 15:49:25,993,56,-228,0,0,0,-4,4,-22,34.2,36.74,1018.25,0,0
2022-11-02 15:49:25,993,56,-228,0,0,0,-4,4,-22,34.2,36.74,1018.25,0,0
2022-11-02 15:49:25,993,56,-228,0,0,0,-4,4,-22,34.2,36.74,1018.25,0,0
2022-11-02 15:49:25,993,56,-228,0,0,0,-4,4,-22,34.2,36.74,1018.25,0,0
2022-11-02 15:49:25,993,56,-228,0,0,0,-4,4,-22,34.2,36.74,1018.25,0,0
2022-11-02 15:49:25,993,56,-228,0,0,0,-4,4,-22,34.2,36.74,1018.25,0,0
2022-11-02 15:49:25,993,56,-228,0,0,0,-4,4,-22,34.2,36.74,1018.25,0,0
2022-11-02 15:49:25,993,56,-228,0,0,0,-4,4,-22,34.2,36.74,1018.25,0,0
2022-11-02 15:49:25,993,56,-228,0,0,0,-4,4,-22,34.2,36.74,1018.25,0,0
2022-11-02 15:49:25,993,66,-228,0,0,0,-5,4,-24,34.2,36.74,1018.25,0,0
2022-11-02 15:49:25,993,66,-228,0,0,0,-5,4,-24,34.2,36.74,1018.25,0,0
2022-11-02 15:49:25,993,66,-228,0,0,0,-5,4,-24,34.2,36.74,1018.25,0,0
2022-11-02 15:49:25,993,66,-228,0,0,0,-5,4,-24,34.2,36.74,1018.25,0,0
2022-11-02 15:49:25,993,66,-228,0,0,0,-5,4,-24,34.2,36.74,1018.25,0,0
2022-11-02 15:49:25,993,66,-228,0,0,0,-5,4,-24,34.2,36.74,1018.25,0,0
2022-11-02 15:49:25,993,66,-228,0,0,0,-5,4,-24,34.2,36.74,1018.25,0,0
2022-11-02 15:49:25,993,66,-228,0,0,0,-5,4,-24,34.2,36.74,1018.25,0,0
2022-11-02 15:49:25,993,66,-228,0,0,0,-5,4,-24,34.2,36.74,1018.25,0,0
2022-11-02 15:49:25,993,66,-228,0,0,0,-5,4,-24,34.2,36.74,1018.25,0,0
2022-11-02 15:49:25,1005,60,-224,0,0,0,-4,5,-19,34.2,36.74,1018.25,0,0
2022-11-02 15:49:25,1005,60,-224,0,0,0,-4,5,-19,34.2,36.74,1018.25,0,0
2022-11-02 15:49:25,1005,60,-224,0,0,0,-4,5,-19,34.2,36.74,1018.25,0,0
2022-11-02 15:49:25,1005,60,-224,0,0,0,-4,5,-19,34.2,36.74,1018.25,0,0
2022-11-02 15:49:25,1005,60,-224,0,0,0,-4,5,-19,34.2,36.74,1018.25,0,0
2022-11-02 15:49:25,1005,60,-224,0,0,0,-4,5,-19,34.2,36.74,1018.25,0,0
2022-11-02 15:49:25,1005,60,-224,0,0,0,-4,5,-19,34.2,36.74,1018.25,0,0
2022-11-02 15:49:25,1005,60,-224,0,0,0,-4,5,-19,34.2,36.74,1018.25,0,0
2022-11-02 15:49:25,1005,60,-224,0,0,0,-4,5,-19,34.2,36.74,1018.25,0,0
2022-11-02 15:49:25,1005,60,-224,0,0,0,-4,5,-19,34.2,36.74,1018.25,0,0
2022-11-02 15:49:26,999,68,-214,0,0,0,-7,4,-25,34.2,36.74,1018.25,0,0
2022-11-02 15:49:26,999,68,-214,0,0,0,-7,4,-25,34.2,36.74,1018.25,0,0
2022-11-02 15:49:26,999,68,-214,0,0,0,-7,4,-25,34.2,36.74,1018.25,0,0
2022-11-02 15:49:26,999,68,-214,0,0,0,-7,4,-25,34.2,36.74,1018.25,0,0
2022-11-02 15:49:26,999,68,-214,0,0,0,-7,4,-25,34.2,36.74,1018.25,0,0
2022-11-02 15:49:26,999,68,-214,0,0,0,-7,4,-25,34.2,36.74,1018.25,0,0
2022-11-02 15:49:26,999,68,-214,0,0,0,-7,4,-25,34.2,36.74,1018.25,0,0
2022-11-02 15:49:26,999,68,-214,0,0,0,-7,4,-25,34.2,36.74,1018.25,0,0
2022-11-02 15:49:26,999,68,-214,0,0,0,-7,4,-25,34.2,36.74,1018.25,0,0
2022-11-02 15:49:26,999,68,-214,0,0,0,-7,4,-25,34.2,36.74,1018.25,0,0
2022-11-02 15:49:26,995,48,-218,0,0,0,-5,5,-20,34.2,36.74,1018.25,0,0
2022-11-02 15:49:26,995,48,-218,0,0,0,-5,5,-20,34.2,36.74,1018.25,0,0
2022-11-02 15:49:26,995,48,-218,0,0,0,-5,5,-20,34.2,36.74,1018.25,0,0
2022-11-02 15:49:26,995,48,-218,0,0,0,-5,5,-20,34.2,36.74,1018.25,0,0
2022-11-02 15:49:26,995,48,-218,0,0,0,-5,5,-20,34.2,36.74,1018.25,0,0
2022-11-02 15:49:26,995,48,-218,0,0,0,-5,5,-20,34.2,36.74,1018.25,0,0
2022-11-02 15:49:26,995,48,-218,0,0,0,-5,5,-20,34.2,36.74,1018.25,0,0
2022-11-02 15:49:26,995,48,-218,0,0,0,-5,5,-20,34.2,36.74,1018.25,0,0
2022-11-02 15:49:26,995,48,-218,0,0,0,-5,5,-20,34.2,36.74,1018.25,0,0
2022-11-02 15:49:26,995,48,-218,0,0,0,-5,5,-20,34.2,36.74,1018.25,0,0
2022-11-02 15:49:26,991,52,-220,0,1,0,-7,3,-22,34.2,36.73,1018.25,0,0
2022-11-02 15:49:26,991,52,-220,0,1,0,-7,3,-22,34.2,36.73,1018.25,0,0
2022-11-02 15:49:26,991,52,-220,0,1,0,-7,3,-22,34.2,36.73,1018.25,0,0
2022-11-02 15:49:26,991,52,-220,0,1,0,-7,3,-22,34.2,36.73,1018.25,0,0
2022-11-02 15:49:26,991,52,-220,0,1,0,-7,3,-22,34.2,36.73,1018.25,0,0
2022-11-02 15:49:26,991,52,-220,0,1,0,-7,3,-22,34.2,36.73,1018.25,0,0
2022-11-02 15:49:26,991,52,-220,0,1,0,-7,3,-22,34.2,36.73,1018.25,0,0
2022-11-02 15:49:26,991,52,-220,0,1,0,-7,3,-22,34.2,36.73,1018.25,0,0
2022-11-02 15:49:26,991,52,-220,0,1,0,-7,3,-22,34.2,36.73,1018.25,0,0
2022-11-02 15:49:26,991,52,-220,0,1,0,-7,3,-22,34.2,36.73,1018.25,0,0
2022-11-02 15:49:26,997,58,-226,0,1,0,-5,2,-26,34.2,36.73,1018.25,0,0
2022-11-02 15:49:26,997,58,-226,0,1,0,-5,2,-26,34.2,36.73,1018.25,0,0
2022-11-02 15:49:26,997,58,-226,0,1,0,-5,2,-26,34.2,36.73,1018.25,0,0
2022-11-02 15:49:26,997,58,-226,0,1,0,-5,2,-26,34.2,36.73,1018.25,0,0
2022-11-02 15:49:26,997,58,-226,0,1,0,-5,2,-26,34.2,36.73,1018.25,0,0
2022-11-02 15:49:26,997,58,-226,0,1,0,-5,2,-26,34.2,36.73,1018.25,0,0
2022-11-02 15:49:26,997,58,-226,0,1,0,-5,2,-26,34.2,36.73,1018.25,0,0
2022-11-02 15:49:26,997,58,-226,0,1,0,-5,2,-26,34.2,36.73,1018.25,0,0
2022-11-02 15:49:26,997,58,-226,0,1,0,-5,2,-26,34.2,36.73,1018.25,0,0
2022-11-02 15:49:26,997,58,-226,0,1,0,-5,2,-26,34.2,36.73,1018.25,0,0
2022-11-02 15:49:26,1013,58,-212,0,1,0,-5,4,-19,34.2,36.73,1018.25,0,0
2022-11-02 15:49:26,1013,58,-212,0,1,0,-5,4,-19,34.2,36.73,1018.25,0,0
2022-11-02 15:49:26,1013,58,-212,0,1,0,-5,4,-19,34.2,36.73,1018.25,0,0
2022-11-02 15:49:26,1013,58,-212,0,1,0,-5,4,-19,34.2,36.73,1018.25,0,0
2022-11-02 15:49:26,1013,58,-212,0,1,0,-5,4,-19,34.2,36.73,1018.25,0,0
2022-11-02 15:49:26,1013,58,-212,0,1,0,-5,4,-19,34.2,36.73,1018.25,0,0
2022-11-02 15:49:26,1013,58,-212,0,1,0,-5,4,-19,34.2,36.73,1018.25,0,0
2022-11-02 15:49:26,1013,58,-212,0,1,0,-5,4,-19,34.2,36.73,1018.25,0,0
2022-11-02 15:49:26,1013,58,-212,0,1,0,-5,4,-19,34.2,36.73,1018.25,0,0
2022-11-02 15:49:26,1013,58,-212,0,1,0,-5,4,-19,34.2,36.73,1018.25,0,0
2022-11-02 15:49:26,993,54,-208,0,0,0,-4,4,-22,34.2,36.73,1018.25,0,0
2022-11-02 15:49:26,993,54,-208,0,0,0,-4,4,-22,34.2,36.73,1018.25,0,0
2022-11-02 15:49:26,993,54,-208,0,0,0,-4,4,-22,34.2,36.73,1018.25,0,0
2022-11-02 15:49:26,993,54,-208,0,0,0,-4,4,-22,34.2,36.73,1018.25,0,0
2022-11-02 15:49:26,993,54,-208,0,0,0,-4,4,-22,34.2,36.73,1018.25,0,0
2022-11-02 15:49:26,993,54,-208,0,0,0,-4,4,-22,34.2,36.73,1018.25,0,0
2022-11-02 15:49:26,993,54,-208,0,0,0,-4,4,-22,34.2,36.73,1018.25,0,0
2022-11-02 15:49:26,993,54,-208,0,0,0,-4,4,-22,34.2,36.73,1018.25,0,0
2022-11-02 15:49:26,993,54,-208,0,0,0,-4,4,-22,34.2,36.73,1018.25,0,0
2022-11-02 15:49:26,993,54,-208,0,0,0,-4,4,-22,34.2,36.73,1018.25,0,0
2022-11-02 15:49:26,999,56,-220,0,0,0,-5,6,-23,34.2,36.73,1018.25,0,0
2022-11-02 15:49:26,999,56,-220,0,0,0,-5,6,-23,34.2,36.73,1018.25,0,0
2022-11-02 15:49:26,999,56,-220,0,0,0,-5,6,-23,34.2,36.73,1018.25,0,0
2022-11-02 15:49:26,999,56,-220,0,0,0,-5,6,-23,34.2,36.73,1018.25,0,0
2022-11-02 15:49:26,999,56,-220,0,0,0,-5,6,-23,34.2,36.73,1018.25,0,0
2022-11-02 15:49:26,999,56,-220,0,0,0,-5,6,-23,34.2,36.73,1018.25,0,0
2022-11-02 15:49:26,999,56,-220,0,0,0,-5,6,-23,34.2,36.73,1018.25,0,0
2022-11-02 15:49:26,999,56,-220,0,0,0,-5,6,-23,34.2,36.73,1018.25,0,0
2022-11-02 15:49:26,999,56,-220,0,0,0,-5,6,-23,34.2,36.73,1018.25,0,0
2022-11-02 15:49:26,999,56,-220,0,0,0,-5,6,-23,34.2,36.73,1018.25,0,0
2022-11-02 15:49:26,1001,54,-216,0,0,0,-6,6,-21,34.2,36.73,1018.25,0,0
2022-11-02 15:49:26,1001,54,-216,0,0,0,-6,6,-21,34.2,36.73,1018.25,0,0
2022-11-02 15:49:26,1001,54,-216,0,0,0,-6,6,-21,34.2,36.73,1018.25,0,0
2022-11-02 15:49:26,1001,54,-216,0,0,0,-6,6,-21,34.2,36.73,1018.25,0,0
2022-11-02 15:49:26,1001,54,-216,0,0,0,-6,6,-21,34.2,36.73,1018.25,0,0
2022-11-02 15:49:26,1001,54,-216,0,0,0,-6,6,-21,34.2,36.73,1018.25,0,0
2022-11-02 15:49:26,1001,54,-216,0,0,0,-6,6,-21,34.2,36.73,1018.25,0,0
2022-11-02 15:49:26,1001,54,-216,0,0,0,-6,6,-21,34.2,36.73,1018.25,0,0
2022-11-02 15:49:26,1001,54,-216,0,0,0,-6,6,-21,34.2,36.73,1018.25,0,0
2022-11-02 15:49:26,1001,54,-216,0,0,0,-6,6,-21,34.2,36.73,1018.25,0,0
2022-11-02 15:49:26,1003,48,-212,0,0,0,-5,4,-24,34.2,36.73,1018.25,0,0
2022-11-02 15:49:26,1003,48,-212,0,0,0,-5,4,-24,34.2,36.73,1018.25,0,0
2022-11-02 15:49:26,1003,48,-212,0,0,0,-5,4,-24,34.2,36.73,1018.25,0,0
2022-11-02 15:49:26,1003,48,-212,0,0,0,-5,4,-24,34.2,36.73,1018.25,0,0
2022-11-02 15:49:26,1003,48,-212,0,0,0,-5,4,-24,34.2,36.73,1018.25,0,0
2022-11-02 15:49:26,1003,48,-212,0,0,0,-5,4,-24,34.2,36.73,1018.25,0,0
2022-11-02 15:49:26,1003,48,-212,0,0,0,-5,4,-24,34.2,36.73,1018.25,0,0
2022-11-02 15:49:26,1003,48,-212,0,0,0,-5,4,-24,34.2,36.73,1018.25,0,0
2022-11-02 15:49:26,1003,48,-212,0,0,0,-5,4,-24,34.2,36.73,1018.25,0,0
2022-11-02 15:49:26,1003,48,-212,0,0,0,-5,4,-24,34.2,36.73,1018.25,0,0
2022-11-02 15:49:26,1003,56,-204,0,0,0,-5,3,-20,34.2,36.73,1018.25,0,0
2022-11-02 15:49:26,1003,56,-204,0,0,0,-5,3,-20,34.2,36.73,1018.25,0,0
2022-11-02 15:49:26,1003,56,-204,0,0,0,-5,3,-20,34.2,36.73,1018.25,0,0
2022-11-02 15:49:26,1003,56,-204,0,0,0,-5,3,-20,34.2,36.73,1018.25,0,0
2022-11-02 15:49:26,1003,56,-204,0,0,0,-5,3,-20,34.2,36.73,1018.25,0,0
2022-11-02 15:49:26,1003,56,-204,0,0,0,-5,3,-20,34.2,36.73,1018.25,0,0
2022-11-02 15:49:26,1003,56,-204,0,0,0,-5,3,-20,34.2,36.73,1018.25,0,0
2022-11-02 15:49:26,1003,56,-204,0,0,0,-5,3,-20,34.2,36.73,1018.25,0,0
2022-11-02 15:49:26,1003,56,-204,0,0,0,-5,3,-20,34.2,36.73,1018.25,0,0
2022-11-02 15:49:26,1003,56,-204,0,0,0,-5,3,-20,34.2,36.73,1018.25,0,0
2022-11-02 15:49:27,993,54,-228,0,0,0,-4,5,-24,34.2,36.73,1018.25,0,0
2022-11-02 15:49:27,993,54,-228,0,0,0,-4,5,-24,34.2,36.73,1018.25,0,0
2022-11-02 15:49:27,993,54,-228,0,0,0,-4,5,-24,34.2,36.73,1018.25,0,0
2022-11-02 15:49:27,993,54,-228,0,0,0,-4,5,-24,34.2,36.73,1018.25,0,0
2022-11-02 15:49:27,993,54,-228,0,0,0,-4,5,-24,34.2,36.73,1018.25,0,0
2022-11-02 15:49:27,993,54,-228,0,0,0,-4,5,-24,34.2,36.73,1018.25,0,0
2022-11-02 15:49:27,993,54,-228,0,0,0,-4,5,-24,34.2,36.73,1018.25,0,0
2022-11-02 15:49:27,993,54,-228,0,0,0,-4,5,-24,34.2,36.73,1018.25,0,0
2022-11-02 15:49:27,993,54,-228,0,0,0,-4,5,-24,34.2,36.73,1018.25,0,0
2022-11-02 15:49:27,993,54,-228,0,0,0,-4,5,-24,34.2,36.73,1018.25,0,0
2022-11-02 15:49:27,995,46,-214,0,0,0,-4,4,-22,34.2,36.73,1018.25,0,0
2022-11-02 15:49:27,995,46,-214,0,0,0,-4,4,-22,34.2,36.73,1018.25,0,0
2022-11-02 15:49:27,995,46,-214,0,0,0,-4,4,-22,34.2,36.73,1018.25,0,0
2022-11-02 15:49:27,995,46,-214,0,0,0,-4,4,-22,34.2,36.73,1018.25,0,0
2022-11-02 15:49:27,995,46,-214,0,0,0,-4,4,-22,34.2,36.73,1018.25,0,0
2022-11-02 15:49:27,995,46,-214,0,0,0,-4,4,-22,34.2,36.73,1018.25,0,0
2022-11-02 15:49:27,995,46,-214,0,0,0,-4,4,-22,34.2,36.73,1018.25,0,0
2022-11-02 15:49:27,995,46,-214,0,0,0,-4,4,-22,34.2,36.73,1018.25,0,0
2022-11-02 15:49:27,995,46,-214,0,0,0,-4,4,-22,34.2,36.73,1018.25,0,0
2022-11-02 15:49:27,995,46,-214,0,0,0,-4,4,-22,34.2,36.73,1018.25,0,0
2022-11-02 15:49:27,999,54,-210,0,0,0,-4,3,-22,34.2,36.73,1018.28,0,0
2022-11-02 15:49:27,999,54,-210,0,0,0,-4,3,-22,34.2,36.73,1018.28,0,0
2022-11-02 15:49:27,999,54,-210,0,0,0,-4,3,-22,34.2,36.73,1018.28,0,0
2022-11-02 15:49:27,999,54,-210,0,0,0,-4,3,-22,34.2,36.73,1018.28,0,0
2022-11-02 15:49:27,999,54,-210,0,0,0,-4,3,-22,34.2,36.73,1018.28,0,0
2022-11-02 15:49:27,999,54,-210,0,0,0,-4,3,-22,34.2,36.73,1018.28,0,0
2022-11-02 15:49:27,999,54,-210,0,0,0,-4,3,-22,34.2,36.73,1018.28,0,0
2022-11-02 15:49:27,999,54,-210,0,0,0,-4,3,-22,34.2,36.73,1018.28,0,0
2022-11-02 15:49:27,999,54,-210,0,0,0,-4,3,-22,34.2,36.73,1018.28,0,0
2022-11-02 15:49:27,999,54,-210,0,0,0,-4,3,-22,34.2,36.73,1018.28,0,0
2022-11-02 15:49:27,999,48,-220,0,0,0,-4,3,-19,34.2,36.73,1018.28,0,0
2022-11-02 15:49:27,999,48,-220,0,0,0,-4,3,-19,34.2,36.73,1018.28,0,0
2022-11-02 15:49:27,999,48,-220,0,0,0,-4,3,-19,34.2,36.73,1018.28,0,0
2022-11-02 15:49:27,999,48,-220,0,0,0,-4,3,-19,34.2,36.73,1018.28,0,0
2022-11-02 15:49:27,999,48,-220,0,0,0,-4,3,-19,34.2,36.73,1018.28,0,0
2022-11-02 15:49:27,999,48,-220,0,0,0,-4,3,-19,34.2,36.73,1018.28,0,0
2022-11-02 15:49:27,999,48,-220,0,0,0,-4,3,-19,34.2,36.73,1018.28,0,0
2022-11-02 15:49:27,999,48,-220,0,0,0,-4,3,-19,34.2,36.73,1018.28,0,0
2022-11-02 15:49:27,999,48,-220,0,0,0,-4,3,-19,34.2,36.73,1018.28,0,0
2022-11-02 15:49:27,999,48,-220,0,0,0,-4,3,-19,34.2,36.73,1018.28,0,0
2022-11-02 15:49:27,997,56,-218,0,0,0,-3,4,-22,34.2,36.73,1018.28,0,0
2022-11-02 15:49:27,997,56,-218,0,0,0,-3,4,-22,34.2,36.73,1018.28,0,0
2022-11-02 15:49:27,997,56,-218,0,0,0,-3,4,-22,34.2,36.73,1018.28,0,0
2022-11-02 15:49:27,997,56,-218,0,0,0,-3,4,-22,34.2,36.73,1018.28,0,0
2022-11-02 15:49:27,997,56,-218,0,0,0,-3,4,-22,34.2,36.73,1018.28,0,0
2022-11-02 15:49:27,997,56,-218,0,0,0,-3,4,-22,34.2,36.73,1018.28,0,0
2022-11-02 15:49:27,997,56,-218,0,0,0,-3,4,-22,34.2,36.73,1018.28,0,0
2022-11-02 15:49:27,997,56,-218,0,0,0,-3,4,-22,34.2,36.73,1018.28,0,0
2022-11-02 15:49:27,997,56,-218,0,0,0,-3,4,-22,34.2,36.73,1018.28,0,0
2022-11-02 15:49:27,997,56,-218,0,0,0,-3,4,-22,34.2,36.73,1018.28,0,0
2022-11-02 15:49:27,993,58,-224,0,0,0,-4,6,-27,34.2,36.73,1018.28,0,0
2022-11-02 15:49:27,993,58,-224,0,0,0,-4,6,-27,34.2,36.73,1018.28,0,0
2022-11-02 15:49:27,993,58,-224,0,0,0,-4,6,-27,34.2,36.73,1018.28,0,0
2022-11-02 15:49:27,993,58,-224,0,0,0,-4,6,-27,34.2,36.73,1018.28,0,0
2022-11-02 15:49:27,993,58,-224,0,0,0,-4,6,-27,34.2,36.73,1018.28,0,0
2022-11-02 15:49:27,993,58,-224,0,0,0,-4,6,-27,34.2,36.73,1018.28,0,0
2022-11-02 15:49:27,993,58,-224,0,0,0,-4,6,-27,34.2,36.73,1018.28,0,0
2022-11-02 15:49:27,993,58,-224,0,0,0,-4,6,-27,34.2,36.73,1018.28,0,0
2022-11-02 15:49:27,993,58,-224,0,0,0,-4,6,-27,34.2,36.73,1018.28,0,0
2022-11-02 15:49:27,993,58,-224,0,0,0,-4,6,-27,34.2,36.73,1018.28,0,0
2022-11-02 15:49:27,1005,52,-224,0,0,0,-6,4,-24,34.2,36.73,1018.28,0,0
2022-11-02 15:49:27,1005,52,-224,0,0,0,-6,4,-24,34.2,36.73,1018.28,0,0
2022-11-02 15:49:27,1005,52,-224,0,0,0,-6,4,-24,34.2,36.73,1018.28,0,0
2022-11-02 15:49:27,1005,52,-224,0,0,0,-6,4,-24,34.2,36.73,1018.28,0,0
2022-11-02 15:49:27,1005,52,-224,0,0,0,-6,4,-24,34.2,36.73,1018.28,0,0
2022-11-02 15:49:27,1005,52,-224,0,0,0,-6,4,-24,34.2,36.73,1018.28,0,0
2022-11-02 15:49:27,1005,52,-224,0,0,0,-6,4,-24,34.2,36.73,1018.28,0,0
2022-11-02 15:49:27,1005,52,-224,0,0,0,-6,4,-24,34.2,36.73,1018.28,0,0
2022-11-02 15:49:27,1005,52,-224,0,0,0,-6,4,-24,34.2,36.73,1018.28,0,0
2022-11-02 15:49:27,1005,52,-224,0,0,0,-6,4,-24,34.2,36.73,1018.28,0,0
2022-11-02 15:49:27,995,60,-222,0,0,0,-8,6,-22,34.2,36.73,1018.28,0,0
2022-11-02 15:49:27,995,60,-222,0,0,0,-8,6,-22,34.2,36.73,1018.28,0,0
2022-11-02 15:49:27,995,60,-222,0,0,0,-8,6,-22,34.2,36.73,1018.28,0,0
2022-11-02 15:49:27,995,60,-222,0,0,0,-8,6,-22,34.2,36.73,1018.28,0,0
2022-11-02 15:49:27,995,60,-222,0,0,0,-8,6,-22,34.2,36.73,1018.28,0,0
2022-11-02 15:49:27,995,60,-222,0,0,0,-8,6,-22,34.2,36.73,1018.28,0,0
2022-11-02 15:49:27,995,60,-222,0,0,0,-8,6,-22,34.2,36.73,1018.28,0,0
2022-11-02 15:49:27,995,60,-222,0,0,0,-8,6,-22,34.2,36.73,1018.28,0,0
2022-11-02 15:49:27,995,60,-222,0,0,0,-8,6,-22,34.2,36.73,1018.28,0,0
2022-11-02 15:49:27,995,60,-222,0,0,0,-8,6,-22,34.2,36.73,1018.28,0,0
2022-11-02 15:49:27,993,54,-222,0,0,0,-5,4,-23,34.2,36.73,1018.28,0,0
2022-11-02 15:49:27,993,54,-222,0,0,0,-5,4,-23,34.2,36.73,1018.28,0,0
2022-11-02 15:49:27,993,54,-222,0,0,0,-5,4,-23,34.2,36.73,1018.28,0,0
2022-11-02 15:49:27,993,54,-222,0,0,0,-5,4,-23,34.2,36.73,1018.28,0,0
2022-11-02 15:49:27,993,54,-222,0,0,0,-5,4,-23,34.2,36.73,1018.28,0,0
2022-11-02 15:49:27,993,54,-222,0,0,0,-5,4,-23,34.2,36.73,1018.28,0,0
2022-11-02 15:49:27,993,54,-222,0,0,0,-5,4,-23,34.2,36.73,1018.28,0,0
2022-11-02 15:49:27,993,54,-222,0,0,0,-5,4,-23,34.2,36.73,1018.28,0,0
2022-11-02 15:49:27,993,54,-222,0,0,0,-5,4,-23,34.2,36.73,1018.28,0,0
2022-11-02 15:49:27,993,54,-222,0,0,0,-5,4,-23,34.2,36.73,1018.28,0,0
2022-11-02 15:49:27,997,52,-232,0,0,0,-3,3,-22,34.2,36.73,1018.28,0,0
2022-11-02 15:49:27,997,52,-232,0,0,0,-3,3,-22,34.2,36.73,1018.28,0,0
2022-11-02 15:49:27,997,52,-232,0,0,0,-3,3,-22,34.2,36.73,1018.28,0,0
2022-11-02 15:49:27,997,52,-232,0,0,0,-3,3,-22,34.2,36.73,1018.28,0,0
2022-11-02 15:49:27,997,52,-232,0,0,0,-3,3,-22,34.2,36.73,1018.28,0,0
2022-11-02 15:49:27,997,52,-232,0,0,0,-3,3,-22,34.2,36.73,1018.28,0,0
2022-11-02 15:49:27,997,52,-232,0,0,0,-3,3,-22,34.2,36.73,1018.28,0,0
2022-11-02 15:49:27,997,52,-232,0,0,0,-3,3,-22,34.2,36.73,1018.28,0,0
2022-11-02 15:49:27,997,52,-232,0,0,0,-3,3,-22,34.2,36.73,1018.28,0,0
2022-11-02 15:49:27,997,52,-232,0,0,0,-3,3,-22,34.2,36.73,1018.28,0,0
2022-11-02 15:49:28,1005,60,-220,0,0,0,-2,5,-24,34.2,36.73,1018.28,0,0
2022-11-02 15:49:28,1005,60,-220,0,0,0,-2,5,-24,34.2,36.73,1018.28,0,0
2022-11-02 15:49:28,1005,60,-220,0,0,0,-2,5,-24,34.2,36.73,1018.28,0,0
2022-11-02 15:49:28,1005,60,-220,0,0,0,-2,5,-24,34.2,36.73,1018.28,0,0
2022-11-02 15:49:28,1005,60,-220,0,0,0,-2,5,-24,34.2,36.73,1018.28,0,0
2022-11-02 15:49:28,1005,60,-220,0,0,0,-2,5,-24,34.2,36.73,1018.28,0,0
2022-11-02 15:49:28,1005,60,-220,0,0,0,-2,5,-24,34.2,36.73,1018.28,0,0
2022-11-02 15:49:28,1005,60,-220,0,0,0,-2,5,-24,34.2,36.73,1018.28,0,0
2022-11-02 15:49:28,1005,60,-220,0,0,0,-2,5,-24,34.2,36.73,1018.28,0,0
2022-11-02 15:49:28,1005,60,-220,0,0,0,-2,5,-24,34.2,36.73,1018.28,0,0
2022-11-02 15:49:28,999,52,-220,0,1,0,-4,4,-22,34.2,36.73,1018.28,0,0
2022-11-02 15:49:28,999,52,-220,0,1,0,-4,4,-22,34.2,36.73,1018.28,0,0
2022-11-02 15:49:28,999,52,-220,0,1,0,-4,4,-22,34.2,36.73,1018.28,0,0
2022-11-02 15:49:28,999,52,-220,0,1,0,-4,4,-22,34.2,36.73,1018.28,0,0
2022-11-02 15:49:28,999,52,-220,0,1,0,-4,4,-22,34.2,36.73,1018.28,0,0
2022-11-02 15:49:28,999,52,-220,0,1,0,-4,4,-22,34.2,36.73,1018.28,0,0
2022-11-02 15:49:28,999,52,-220,0,1,0,-4,4,-22,34.2,36.73,1018.28,0,0
2022-11-02 15:49:28,999,52,-220,0,1,0,-4,4,-22,34.2,36.73,1018.28,0,0
2022-11-02 15:49:28,999,52,-220,0,1,0,-4,4,-22,34.2,36.73,1018.28,0,0
2022-11-02 15:49:28,999,52,-220,0,1,0,-4,4,-22,34.2,36.73,1018.28,0,0
2022-11-02 15:49:28,1001,58,-218,0,0,0,-4,5,-25,34.2,36.71,1018.22,0,0
2022-11-02 15:49:28,1001,58,-218,0,0,0,-4,5,-25,34.2,36.71,1018.22,0,0
2022-11-02 15:49:28,1001,58,-218,0,0,0,-4,5,-25,34.2,36.71,1018.22,0,0
2022-11-02 15:49:28,1001,58,-218,0,0,0,-4,5,-25,34.2,36.71,1018.22,0,0
2022-11-02 15:49:28,1001,58,-218,0,0,0,-4,5,-25,34.2,36.71,1018.22,0,0
2022-11-02 15:49:28,1001,58,-218,0,0,0,-4,5,-25,34.2,36.71,1018.22,0,0
2022-11-02 15:49:28,1001,58,-218,0,0,0,-4,5,-25,34.2,36.71,1018.22,0,0
2022-11-02 15:49:28,1001,58,-218,0,0,0,-4,5,-25,34.2,36.71,1018.22,0,0
2022-11-02 15:49:28,1001,58,-218,0,0,0,-4,5,-25,34.2,36.71,1018.22,0,0
2022-11-02 15:49:28,1001,58,-218,0,0,0,-4,5,-25,34.2,36.71,1018.22,0,0
2022-11-02 15:49:28,1003,50,-206,0,0,0,-5,5,-21,34.2,36.71,1018.22,0,0
2022-11-02 15:49:28,1003,50,-206,0,0,0,-5,5,-21,34.2,36.71,1018.22,0,0
2022-11-02 15:49:28,1003,50,-206,0,0,0,-5,5,-21,34.2,36.71,1018.22,0,0
2022-11-02 15:49:28,1003,50,-206,0,0,0,-5,5,-21,34.2,36.71,1018.22,0,0
2022-11-02 15:49:28,1003,50,-206,0,0,0,-5,5,-21,34.2,36.71,1018.22,0,0
2022-11-02 15:49:28,1003,50,-206,0,0,0,-5,5,-21,34.2,36.71,1018.22,0,0
2022-11-02 15:49:28,1003,50,-206,0,0,0,-5,5,-21,34.2,36.71,1018.22,0,0
2022-11-02 15:49:28,1003,50,-206,0,0,0,-5,5,-21,34.2,36.71,1018.22,0,0
2022-11-02 15:49:28,1003,50,-206,0,0,0,-5,5,-21,34.2,36.71,1018.22,0,0
2022-11-02 15:49:28,1003,50,-206,0,0,0,-5,5,-21,34.2,36.71,1018.22,0,0
2022-11-02 15:49:28,1001,48,-212,0,0,0,-3,3,-20,34.2,36.71,1018.22,0,0
2022-11-02 15:49:28,1001,48,-212,0,0,0,-3,3,-20,34.2,36.71,1018.22,0,0
2022-11-02 15:49:28,1001,48,-212,0,0,0,-3,3,-20,34.2,36.71,1018.22,0,0
2022-11-02 15:49:28,1001,48,-212,0,0,0,-3,3,-20,34.2,36.71,1018.22,0,0
2022-11-02 15:49:28,1001,48,-212,0,0,0,-3,3,-20,34.2,36.71,1018.22,0,0
2022-11-02 15:49:28,1001,48,-212,0,0,0,-3,3,-20,34.2,36.71,1018.22,0,0
2022-11-02 15:49:28,1001,48,-212,0,0,0,-3,3,-20,34.2,36.71,1018.22,0,0
2022-11-02 15:49:28,1001,48,-212,0,0,0,-3,3,-20,34.2,36.71,1018.22,0,0
2022-11-02 15:49:28,1001,48,-212,0,0,0,-3,3,-20,34.2,36.71,1018.22,0,0
2022-11-02 15:49:28,1001,48,-212,0,0,0,-3,3,-20,34.2,36.71,1018.22,0,0
2022-11-02 15:49:28,997,50,-214,0,0,0,-5,6,-19,34.2,36.71,1018.22,0,0
2022-11-02 15:49:28,997,50,-214,0,0,0,-5,6,-19,34.2,36.71,1018.22,0,0
2022-11-02 15:49:28,997,50,-214,0,0,0,-5,6,-19,34.2,36.71,1018.22,0,0
2022-11-02 15:49:28,997,50,-214,0,0,0,-5,6,-19,34.2,36.71,1018.22,0,0
2022-11-02 15:49:28,997,50,-214,0,0,0,-5,6,-19,34.2,36.71,1018.22,0,0
2022-11-02 15:49:28,997,50,-214,0,0,0,-5,6,-19,34.2,36.71,1018.22,0,0
2022-11-02 15:49:28,997,50,-214,0,0,0,-5,6,-19,34.2,36.71,1018.22,0,0
2022-11-02 15:49:28,997,50,-214,0,0,0,-5,6,-19,34.2,36.71,1018.22,0,0
2022-11-02 15:49:28,997,50,-214,0,0,0,-5,6,-19,34.2,36.71,1018.22,0,0
2022-11-02 15:49:28,997,50,-214,0,0,0,-5,6,-19,34.2,36.71,1018.22,0,0
2022-11-02 15:49:28,1009,40,-201,0,0,0,-4,4,-24,34.2,36.71,1018.22,0,0
2022-11-02 15:49:28,1009,40,-201,0,0,0,-4,4,-24,34.2,36.71,1018.22,0,0
2022-11-02 15:49:28,1009,40,-201,0,0,0,-4,4,-24,34.2,36.71,1018.22,0,0
2022-11-02 15:49:28,1009,40,-201,0,0,0,-4,4,-24,34.2,36.71,1018.22,0,0
2022-11-02 15:49:28,1009,40,-201,0,0,0,-4,4,-24,34.2,36.71,1018.22,0,0
2022-11-02 15:49:28,1009,40,-201,0,0,0,-4,4,-24,34.2,36.71,1018.22,0,0
2022-11-02 15:49:28,1009,40,-201,0,0,0,-4,4,-24,34.2,36.71,1018.22,0,0
2022-11-02 15:49:28,1009,40,-201,0,0,0,-4,4,-24,34.2,36.71,1018.22,0,0
2022-11-02 15:49:28,1009,40,-201,0,0,0,-4,4,-24,34.2,36.71,1018.22,0,0
2022-11-02 15:49:28,1009,40,-201,0,0,0,-4,4,-24,34.2,36.71,1018.22,0,0
2022-11-02 15:49:28,1005,58,-224,0,0,0,-3,3,-25,34.2,36.71,1018.22,0,0
2022-11-02 15:49:28,1005,58,-224,0,0,0,-3,3,-25,34.2,36.71,1018.22,0,0
2022-11-02 15:49:28,1005,58,-224,0,0,0,-3,3,-25,34.2,36.71,1018.22,0,0
2022-11-02 15:49:28,1005,58,-224,0,0,0,-3,3,-25,34.2,36.71,1018.22,0,0
2022-11-02 15:49:28,1005,58,-224,0,0,0,-3,3,-25,34.2,36.71,1018.22,0,0
2022-11-02 15:49:28,1005,58,-224,0,0,0,-3,3,-25,34.2,36.71,1018.22,0,0
2022-11-02 15:49:28,1005,58,-224,0,0,0,-3,3,-25,34.2,36.71,1018.22,0,0
2022-11-02 15:49:28,1005,58,-224,0,0,0,-3,3,-25,34.2,36.71,1018.22,0,0
2022-11-02 15:49:28,1005,58,-224,0,0,0,-3,3,-25,34.2,36.71,1018.22,0,0
2022-11-02 15:49:28,1005,58,-224,0,0,0,-3,3,-25,34.2,36.71,1018.22,0,0
2022-11-02 15:49:28,1005,46,-226,0,0,0,-5,4,-23,34.2,36.71,1018.22,0,0
2022-11-02 15:49:28,1005,46,-226,0,0,0,-5,4,-23,34.2,36.71,1018.22,0,0
2022-11-02 15:49:28,1005,46,-226,0,0,0,-5,4,-23,34.2,36.71,1018.22,0,0
2022-11-02 15:49:28,1005,46,-226,0,0,0,-5,4,-23,34.2,36.71,1018.22,0,0
2022-11-02 15:49:28,1005,46,-226,0,0,0,-5,4,-23,34.2,36.71,1018.22,0,0
2022-11-02 15:49:28,1005,46,-226,0,0,0,-5,4,-23,34.2,36.71,1018.22,0,0
2022-11-02 15:49:28,1005,46,-226,0,0,0,-5,4,-23,34.2,36.71,1018.22,0,0
2022-11-02 15:49:28,1005,46,-226,0,0,0,-5,4,-23,34.2,36.71,1018.22,0,0
2022-11-02 15:49:28,1005,46,-226,0,0,0,-5,4,-23,34.2,36.71,1018.22,0,0
2022-11-02 15:49:28,1005,46,-226,0,0,0,-5,4,-23,34.2,36.71,1018.22,0,0
2022-11-02 15:49:28,1001,58,-216,0,0,0,-4,5,-17,34.2,36.71,1018.22,0,0
2022-11-02 15:49:28,1001,58,-216,0,0,0,-4,5,-17,34.2,36.71,1018.22,0,0
2022-11-02 15:49:28,1001,58,-216,0,0,0,-4,5,-17,34.2,36.71,1018.22,0,0
2022-11-02 15:49:28,1001,58,-216,0,0,0,-4,5,-17,34.2,36.71,1018.22,0,0
2022-11-02 15:49:28,1001,58,-216,0,0,0,-4,5,-17,34.2,36.71,1018.22,0,0
2022-11-02 15:49:28,1001,58,-216,0,0,0,-4,5,-17,34.2,36.71,1018.22,0,0
2022-11-02 15:49:28,1001,58,-216,0,0,0,-4,5,-17,34.2,36.71,1018.22,0,0
2022-11-02 15:49:28,1001,58,-216,0,0,0,-4,5,-17,34.2,36.71,1018.22,0,0
2022-11-02 15:49:28,1001,58,-216,0,0,0,-4,5,-17,34.2,36.71,1018.22,0,0
2022-11-02 15:49:28,1001,58,-216,0,0,0,-4,5,-17,34.2,36.71,1018.22,0,0
2022-11-02 15:49:28,991,60,-226,0,-1,0,-3,2,-23,34.2,36.71,1018.22,0,0
2022-11-02 15:49:28,991,60,-226,0,-1,0,-3,2,-23,34.2,36.71,1018.22,0,0
2022-11-02 15:49:28,991,60,-226,0,-1,0,-3,2,-23,34.2,36.71,1018.22,0,0
2022-11-02 15:49:28,991,60,-226,0,-1,0,-3,2,-23,34.2,36.71,1018.22,0,0
2022-11-02 15:49:28,991,60,-226,0,-1,0,-3,2,-23,34.2,36.71,1018.22,0,0
2022-11-02 15:49:28,991,60,-226,0,-1,0,-3,2,-23,34.2,36.71,1018.22,0,0
2022-11-02 15:49:28,991,60,-226,0,-1,0,-3,2,-23,34.2,36.71,1018.22,0,0
2022-11-02 15:49:28,991,60,-226,0,-1,0,-3,2,-23,34.2,36.71,1018.22,0,0
2022-11-02 15:49:28,991,60,-226,0,-1,0,-3,2,-23,34.2,36.71,1018.22,0,0
2022-11-02 15:49:28,991,60,-226,0,-1,0,-3,2,-23,34.2,36.71,1018.22,0,0
2022-11-02 15:49:29,1005,60,-228,0,0,0,-5,5,-25,34.2,36.71,1018.22,0,0
2022-11-02 15:49:29,1005,60,-228,0,0,0,-5,5,-25,34.2,36.71,1018.22,0,0
2022-11-02 15:49:29,1005,60,-228,0,0,0,-5,5,-25,34.2,36.71,1018.22,0,0
2022-11-02 15:49:29,1005,60,-228,0,0,0,-5,5,-25,34.2,36.71,1018.22,0,0
2022-11-02 15:49:29,1005,60,-228,0,0,0,-5,5,-25,34.2,36.71,1018.22,0,0
2022-11-02 15:49:29,1005,60,-228,0,0,0,-5,5,-25,34.2,36.71,1018.22,0,0
2022-11-02 15:49:29,1005,60,-228,0,0,0,-5,5,-25,34.2,36.71,1018.22,0,0
2022-11-02 15:49:29,1005,60,-228,0,0,0,-5,5,-25,34.2,36.71,1018.22,0,0
2022-11-02 15:49:29,1005,60,-228,0,0,0,-5,5,-25,34.2,36.71,1018.22,0,0
2022-11-02 15:49:29,1005,60,-228,0,0,0,-5,5,-25,34.2,36.71,1018.22,0,0
2022-11-02 15:49:29,993,62,-216,0,0,0,-4,5,-19,34.2,36.71,1018.22,0,0
2022-11-02 15:49:29,993,62,-216,0,0,0,-4,5,-19,34.2,36.71,1018.22,0,0
2022-11-02 15:49:29,993,62,-216,0,0,0,-4,5,-19,34.2,36.71,1018.22,0,0
2022-11-02 15:49:29,993,62,-216,0,0,0,-4,5,-19,34.2,36.71,1018.22,0,0
2022-11-02 15:49:29,993,62,-216,0,0,0,-4,5,-19,34.2,36.71,1018.22,0,0
2022-11-02 15:49:29,993,62,-216,0,0,0,-4,5,-19,34.2,36.71,1018.22,0,0
2022-11-02 15:49:29,993,62,-216,0,0,0,-4,5,-19,34.2,36.71,1018.22,0,0
2022-11-02 15:49:29,993,62,-216,0,0,0,-4,5,-19,34.2,36.71,1018.22,0,0
2022-11-02 15:49:29,993,62,-216,0,0,0,-4,5,-19,34.2,36.71,1018.22,0,0
2022-11-02 15:49:29,993,62,-216,0,0,0,-4,5,-19,34.2,36.71,1018.22,0,0
2022-11-02 15:49:29,1001,56,-224,0,0,0,-7,4,-19,34.2,36.7,1018.24,0,0
2022-11-02 15:49:29,1001,56,-224,0,0,0,-7,4,-19,34.2,36.7,1018.24,0,0
2022-11-02 15:49:29,1001,56,-224,0,0,0,-7,4,-19,34.2,36.7,1018.24,0,0
2022-11-02 15:49:29,1001,56,-224,0,0,0,-7,4,-19,34.2,36.7,1018.24,0,0
2022-11-02 15:49:29,1001,56,-224,0,0,0,-7,4,-19,34.2,36.7,1018.24,0,0
2022-11-02 15:49:29,1001,56,-224,0,0,0,-7,4,-19,34.2,36.7,1018.24,0,0
2022-11-02 15:49:29,1001,56,-224,0,0,0,-7,4,-19,34.2,36.7,1018.24,0,0
2022-11-02 15:49:29,1001,56,-224,0,0,0,-7,4,-19,34.2,36.7,1018.24,0,0
2022-11-02 15:49:29,1001,56,-224,0,0,0,-7,4,-19,34.2,36.7,1018.24,0,0
2022-11-02 15:49:29,1001,56,-224,0,0,0,-7,4,-19,34.2,36.7,1018.24,0,0
2022-11-02 15:49:29,1005,60,-220,0,0,0,-6,5,-27,34.2,36.7,1018.24,0,0
2022-11-02 15:49:29,1005,60,-220,0,0,0,-6,5,-27,34.2,36.7,1018.24,0,0
2022-11-02 15:49:29,1005,60,-220,0,0,0,-6,5,-27,34.2,36.7,1018.24,0,0
2022-11-02 15:49:29,1005,60,-220,0,0,0,-6,5,-27,34.2,36.7,1018.24,0,0
2022-11-02 15:49:29,1005,60,-220,0,0,0,-6,5,-27,34.2,36.7,1018.24,0,0
2022-11-02 15:49:29,1005,60,-220,0,0,0,-6,5,-27,34.2,36.7,1018.24,0,0
2022-11-02 15:49:29,1005,60,-220,0,0,0,-6,5,-27,34.2,36.7,1018.24,0,0
2022-11-02 15:49:29,1005,60,-220,0,0,0,-6,5,-27,34.2,36.7,1018.24,0,0
2022-11-02 15:49:29,1005,60,-220,0,0,0,-6,5,-27,34.2,36.7,1018.24,0,0
2022-11-02 15:49:29,1005,60,-220,0,0,0,-6,5,-27,34.2,36.7,1018.24,0,0
2022-11-02 15:49:29,1001,56,-218,0,0,0,-5,2,-20,34.2,36.7,1018.24,0,0
2022-11-02 15:49:29,1001,56,-218,0,0,0,-5,2,-20,34.2,36.7,1018.24,0,0
2022-11-02 15:49:29,1001,56,-218,0,0,0,-5,2,-20,34.2,36.7,1018.24,0,0
2022-11-02 15:49:29,1001,56,-218,0,0,0,-5,2,-20,34.2,36.7,1018.24,0,0
2022-11-02 15:49:29,1001,56,-218,0,0,0,-5,2,-20,34.2,36.7,1018.24,0,0
2022-11-02 15:49:29,1001,56,-218,0,0,0,-5,2,-20,34.2,36.7,1018.24,0,0
2022-11-02 15:49:29,1001,56,-218,0,0,0,-5,2,-20,34.2,36.7,1018.24,0,0
2022-11-02 15:49:29,1001,56,-218,0,0,0,-5,2,-20,34.2,36.7,1018.24,0,0
2022-11-02 15:49:29,1001,56,-218,0,0,0,-5,2,-20,34.2,36.7,1018.24,0,0
2022-11-02 15:49:29,1001,56,-218,0,0,0,-5,2,-20,34.2,36.7,1018.24,0,0
2022-11-02 15:49:29,999,50,-224,0,1,0,-5,5,-24,34.2,36.7,1018.24,0,0
2022-11-02 15:49:29,999,50,-224,0,1,0,-5,5,-24,34.2,36.7,1018.24,0,0
2022-11-02 15:49:29,999,50,-224,0,1,0,-5,5,-24,34.2,36.7,1018.24,0,0
2022-11-02 15:49:29,999,50,-224,0,1,0,-5,5,-24,34.2,36.7,1018.24,0,0
2022-11-02 15:49:29,999,50,-224,0,1,0,-5,5,-24,34.2,36.7,1018.24,0,0
2022-11-02 15:49:29,999,50,-224,0,1,0,-5,5,-24,34.2,36.7,1018.24,0,0
2022-11-02 15:49:29,999,50,-224,0,1,0,-5,5,-24,34.2,36.7,1018.24,0,0
2022-11-02 15:49:29,999,50,-224,0,1,0,-5,5,-24,34.2,36.7,1018.24,0,0
2022-11-02 15:49:29,999,50,-224,0,1,0,-5,5,-24,34.2,36.7,1018.24,0,0
2022-11-02 15:49:29,999,50,-224,0,1,0,-5,5,-24,34.2,36.7,1018.24,0,0
2022-11-02 15:49:29,997,54,-216,0,0,0,-4,5,-25,34.2,36.7,1018.24,0,0
2022-11-02 15:49:29,997,54,-216,0,0,0,-4,5,-25,34.2,36.7,1018.24,0,0
2022-11-02 15:49:29,997,54,-216,0,0,0,-4,5,-25,34.2,36.7,1018.24,0,0
2022-11-02 15:49:29,997,54,-216,0,0,0,-4,5,-25,34.2,36.7,1018.24,0,0
2022-11-02 15:49:29,997,54,-216,0,0,0,-4,5,-25,34.2,36.7,1018.24,0,0
2022-11-02 15:49:29,997,54,-216,0,0,0,-4,5,-25,34.2,36.7,1018.24,0,0
2022-11-02 15:49:29,997,54,-216,0,0,0,-4,5,-25,34.2,36.7,1018.24,0,0
2022-11-02 15:49:29,997,54,-216,0,0,0,-4,5,-25,34.2,36.7,1018.24,0,0
2022-11-02 15:49:29,997,54,-216,0,0,0,-4,5,-25,34.2,36.7,1018.24,0,0
2022-11-02 15:49:29,997,54,-216,0,0,0,-4,5,-25,34.2,36.7,1018.24,0,0
2022-11-02 15:49:29,993,46,-214,0,0,0,-5,5,-24,34.2,36.7,1018.24,0,0
2022-11-02 15:49:29,993,46,-214,0,0,0,-5,5,-24,34.2,36.7,1018.24,0,0
2022-11-02 15:49:29,993,46,-214,0,0,0,-5,5,-24,34.2,36.7,1018.24,0,0
2022-11-02 15:49:29,993,46,-214,0,0,0,-5,5,-24,34.2,36.7,1018.24,0,0
2022-11-02 15:49:29,993,46,-214,0,0,0,-5,5,-24,34.2,36.7,1018.24,0,0
2022-11-02 15:49:29,993,46,-214,0,0,0,-5,5,-24,34.2,36.7,1018.24,0,0
2022-11-02 15:49:29,993,46,-214,0,0,0,-5,5,-24,34.2,36.7,1018.24,0,0
2022-11-02 15:49:29,993,46,-214,0,0,0,-5,5,-24,34.2,36.7,1018.24,0,0
2022-11-02 15:49:29,993,46,-214,0,0,0,-5,5,-24,34.2,36.7,1018.24,0,0
2022-11-02 15:49:29,993,46,-214,0,0,0,-5,5,-24,34.2,36.7,1018.24,0,0
2022-11-02 15:49:29,991,50,-228,0,0,0,-7,4,-22,34.2,36.7,1018.24,0,0
