Time,Ax,Ay,Az,Gx,Gy,Gz,Mx,My,Mz,Temp,Humidity,Pressure,Mic,Light
2022-11-02 15:16:50,1016,23,-15,-1,2,1,18,-12,110,31.7,32.37,1018.17,1,0
2022-11-02 15:16:50,1016,23,-15,-1,2,1,18,-12,110,31.7,32.37,1018.17,1,0
2022-11-02 15:16:50,1016,23,-15,-1,2,1,18,-12,110,31.7,32.37,1018.17,1,0
2022-11-02 15:16:50,1030,27,-13,-4,3,1,18,-12,112,31.7,32.37,1018.17,1,0
2022-11-02 15:16:50,1030,27,-13,-4,3,1,18,-12,112,31.7,32.37,1018.17,1,0
2022-11-02 15:16:50,1030,27,-13,-4,3,1,18,-12,112,31.7,32.37,1018.17,1,0
2022-11-02 15:16:50,1001,19,19,-3,8,5,16,-14,108,31.7,32.37,1018.17,1,0
2022-11-02 15:16:50,1001,19,19,-3,8,5,16,-14,108,31.7,32.37,1018.17,1,0
2022-11-02 15:16:50,1001,19,19,-3,8,5,16,-14,108,31.7,32.37,1018.17,1,0
2022-11-02 15:16:50,989,25,-117,-14,6,4,20,-13,114,31.7,32.37,1018.17,1,0
2022-11-02 15:16:50,989,25,-117,-14,6,4,20,-13,114,31.7,32.37,1018.17,1,0
2022-11-02 15:16:50,989,25,-117,-14,6,4,20,-13,114,31.7,32.37,1018.17,1,0
2022-11-02 15:16:50,1052,-91,-91,12,1,8,18,-11,117,31.6,32.75,1018.19,1,0
2022-11-02 15:16:50,1052,-91,-91,12,1,8,18,-11,117,31.6,32.75,1018.19,1,0
2022-11-02 15:16:50,1052,-91,-91,12,1,8,18,-11,117,31.6,32.75,1018.19,1,0
2022-11-02 15:16:50,917,-50,-121,-12,-4,4,15,-16,112,31.6,32.75,1018.19,1,0
2022-11-02 15:16:50,917,-50,-121,-12,-4,4,15,-16,112,31.6,32.75,1018.19,1,0
2022-11-02 15:16:50,917,-50,-121,-12,-4,4,15,-16,112,31.6,32.75,1018.19,1,0
2022-11-02 15:16:50,1032,-48,-177,-2,-2,-7,16,-14,113,31.6,32.75,1018.19,1,0
2022-11-02 15:16:50,1032,-48,-177,-2,-2,-7,16,-14,113,31.6,32.75,1018.19,1,0
2022-11-02 15:16:50,1032,-48,-177,-2,-2,-7,16,-14,113,31.6,32.75,1018.19,1,0
2022-11-02 15:16:50,1104,-189,1,-13,-5,4,17,-12,113,31.6,32.75,1018.19,1,0
2022-11-02 15:16:50,1104,-189,1,-13,-5,4,17,-12,113,31.6,32.75,1018.19,1,0
2022-11-02 15:16:50,1104,-189,1,-13,-5,4,17,-12,113,31.6,32.75,1018.19,1,0
2022-11-02 15:16:51,952,27,17,-14,7,-6,17,-15,110,31.6,32.75,1018.19,1,0
2022-11-02 15:16:51,952,27,17,-14,7,-6,17,-15,110,31.6,32.75,1018.19,1,0
2022-11-02 15:16:51,952,27,17,-14,7,-6,17,-15,110,31.6,32.75,1018.19,1,0
2022-11-02 15:16:51,977,-29,19,-25,-2,-6,20,-20,109,31.6,32.75,1018.19,1,0
2022-11-02 15:16:51,977,-29,19,-25,-2,-6,20,-20,109,31.6,32.75,1018.19,1,0
2022-11-02 15:16:51,977,-29,19,-25,-2,-6,20,-20,109,31.6,32.75,1018.19,1,0
2022-11-02 15:16:51,985,83,52,0,13,-10,19,-17,103,31.6,32.75,1018.19,1,0
2022-11-02 15:16:51,985,83,52,0,13,-10,19,-17,103,31.6,32.75,1018.19,1,0
2022-11-02 15:16:51,985,83,52,0,13,-10,19,-17,103,31.6,32.75,1018.19,1,0
2022-11-02 15:16:51,1028,-21,68,-1,12,-6,20,-18,102,31.6,32.75,1018.19,1,0
2022-11-02 15:16:51,1028,-21,68,-1,12,-6,20,-18,102,31.6,32.75,1018.19,1,0
2022-11-02 15:16:51,1028,-21,68,-1,12,-6,20,-18,102,31.6,32.75,1018.19,1,0
2022-11-02 15:16:51,972,113,29,-2,7,-1,20,-19,106,31.6,32.75,1018.19,1,0
2022-11-02 15:16:51,972,113,29,-2,7,-1,20,-19,106,31.6,32.75,1018.19,1,0
2022-11-02 15:16:51,972,113,29,-2,7,-1,20,-19,106,31.6,32.75,1018.19,1,0
2022-11-02 15:16:51,1018,64,-3,0,9,2,18,-18,108,31.6,32.75,1018.19,1,0
2022-11-02 15:16:51,1018,64,-3,0,9,2,18,-18,108,31.6,32.75,1018.19,1,0
2022-11-02 15:16:51,1018,64,-3,0,9,2,18,-18,108,31.6,32.75,1018.19,1,0
2022-11-02 15:16:51,1028,83,23,-19,2,14,19,-17,110,31.6,32.75,1018.15,1,0
2022-11-02 15:16:51,1028,83,23,-19,2,14,19,-17,110,31.6,32.75,1018.15,1,0
2022-11-02 15:16:51,1028,83,23,-19,2,14,19,-17,110,31.6,32.75,1018.15,1,0
2022-11-02 15:16:51,1054,-103,-3,-24,-14,-7,18,-21,102,31.6,32.75,1018.15,1,0
2022-11-02 15:16:51,1054,-103,-3,-24,-14,-7,18,-21,102,31.6,32.75,1018.15,1,0
2022-11-02 15:16:51,1054,-103,-3,-24,-14,-7,18,-21,102,31.6,32.75,1018.15,1,0
2022-11-02 15:16:51,1175,19,150,-36,5,-2,19,-20,106,31.6,32.75,1018.15,1,0
2022-11-02 15:16:51,1175,19,150,-36,5,-2,19,-20,106,31.6,32.75,1018.15,1,0
2022-11-02 15:16:51,1175,19,150,-36,5,-2,19,-20,106,31.6,32.75,1018.15,1,0
2022-11-02 15:16:51,882,-101,17,-27,-17,5,20,-26,105,31.6,32.75,1018.15,1,0
2022-11-02 15:16:51,882,-101,17,-27,-17,5,20,-26,105,31.6,32.75,1018.15,1,0
2022-11-02 15:16:51,882,-101,17,-27,-17,5,20,-26,105,31.6,32.75,1018.15,1,0
2022-11-02 15:16:52,1081,-74,-9,-16,-12,1,20,-26,99,31.6,32.75,1018.15,1,0
2022-11-02 15:16:52,1081,-74,-9,-16,-12,1,20,-26,99,31.6,32.75,1018.15,1,0
2022-11-02 15:16:52,1081,-74,-9,-16,-12,1,20,-26,99,31.6,32.75,1018.15,1,0
2022-11-02 15:16:52,919,-46,-66,5,-9,8,20,-28,95,31.6,32.75,1018.15,1,0
2022-11-02 15:16:52,919,-46,-66,5,-9,8,20,-28,95,31.6,32.75,1018.15,1,0
2022-11-02 15:16:52,919,-46,-66,5,-9,8,20,-28,95,31.6,32.75,1018.15,1,0
2022-11-02 15:16:52,985,-72,-85,6,2,8,21,-27,89,31.6,32.75,1018.15,1,0
2022-11-02 15:16:52,985,-72,-85,6,2,8,21,-27,89,31.6,32.75,1018.15,1,0
2022-11-02 15:16:52,985,-72,-85,6,2,8,21,-27,89,31.6,32.75,1018.15,1,0
2022-11-02 15:16:52,950,-35,-117,21,4,-5,22,-26,99,31.6,32.75,1018.15,1,0
2022-11-02 15:16:52,950,-35,-117,21,4,-5,22,-26,99,31.6,32.75,1018.15,1,0
2022-11-02 15:16:52,950,-35,-117,21,4,-5,22,-26,99,31.6,32.75,1018.15,1,0
2022-11-02 15:16:52,1007,-132,-48,13,12,-5,21,-28,92,31.6,32.75,1018.15,1,0
2022-11-02 15:16:52,1007,-132,-48,13,12,-5,21,-28,92,31.6,32.75,1018.15,1,0
2022-11-02 15:16:52,1007,-132,-48,13,12,-5,21,-28,92,31.6,32.75,1018.15,1,0
2022-11-02 15:16:52,1130,109,-173,24,-7,-13,21,-24,99,31.6,32.75,1018.15,1,0
2022-11-02 15:16:52,1130,109,-173,24,-7,-13,21,-24,99,31.6,32.75,1018.15,1,0
2022-11-02 15:16:52,1130,109,-173,24,-7,-13,21,-24,99,31.6,32.75,1018.15,1,0
2022-11-02 15:16:52,1018,-269,37,8,-1,7,24,-23,104,31.6,32.76,1018.09,1,0
2022-11-02 15:16:52,1018,-269,37,8,-1,7,24,-23,104,31.6,32.76,1018.09,1,0
2022-11-02 15:16:52,1018,-269,37,8,-1,7,24,-23,104,31.6,32.76,1018.09,1,0
2022-11-02 15:16:52,936,5,95,19,8,-10,21,-19,99,31.6,32.76,1018.09,1,0
2022-11-02 15:16:52,936,5,95,19,8,-10,21,-19,99,31.6,32.76,1018.09,1,0
2022-11-02 15:16:52,936,5,95,19,8,-10,21,-19,99,31.6,32.76,1018.09,1,0
2022-11-02 15:16:52,1034,74,70,2,3,-9,22,-17,103,31.6,32.76,1018.09,1,0
2022-11-02 15:16:52,1034,74,70,2,3,-9,22,-17,103,31.6,32.76,1018.09,1,0
2022-11-02 15:16:52,1034,74,70,2,3,-9,22,-17,103,31.6,32.76,1018.09,1,0
2022-11-02 15:16:52,1003,56,60,-11,10,-15,25,-17,102,31.6,32.76,1018.09,1,0
2022-11-02 15:16:52,1003,56,60,-11,10,-15,25,-17,102,31.6,32.76,1018.09,1,0
2022-11-02 15:16:52,1003,56,60,-11,10,-15,25,-17,102,31.6,32.76,1018.09,1,0
2022-11-02 15:16:53,997,148,21,-9,6,-2,22,-17,102,31.6,32.76,1018.09,1,0
2022-11-02 15:16:53,997,148,21,-9,6,-2,22,-17,102,31.6,32.76,1018.09,1,0
2022-11-02 15:16:53,997,148,21,-9,6,-2,22,-17,102,31.6,32.76,1018.09,1,0
2022-11-02 15:16:53,1005,111,19,-2,7,3,22,-16,103,31.6,32.76,1018.09,1,0
2022-11-02 15:16:53,1005,111,19,-2,7,3,22,-16,103,31.6,32.76,1018.09,1,0
2022-11-02 15:16:53,1005,111,19,-2,7,3,22,-16,103,31.6,32.76,1018.09,1,0
2022-11-02 15:16:53,993,105,-7,-16,-3,17,22,-16,102,31.6,32.76,1018.09,1,0
2022-11-02 15:16:53,993,105,-7,-16,-3,17,22,-16,102,31.6,32.76,1018.09,1,0
2022-11-02 15:16:53,993,105,-7,-16,-3,17,22,-16,102,31.6,32.76,1018.09,1,0
2022-11-02 15:16:53,1024,78,5,-15,-2,6,22,-20,100,31.6,32.76,1018.09,1,0
2022-11-02 15:16:53,1024,78,5,-15,-2,6,22,-20,100,31.6,32.76,1018.09,1,0
2022-11-02 15:16:53,1024,78,5,-15,-2,6,22,-20,100,31.6,32.76,1018.09,1,0
2022-11-02 15:16:53,1274,144,7,-33,0,-2,23,-20,97,31.6,32.76,1018.09,1,0
2022-11-02 15:16:53,1274,144,7,-33,0,-2,23,-20,97,31.6,32.76,1018.09,1,0
2022-11-02 15:16:53,1274,144,7,-33,0,-2,23,-20,97,31.6,32.76,1018.09,1,0
2022-11-02 15:16:53,925,-109,89,-12,-22,-5,23,-23,96,31.6,32.76,1018.09,1,0
2022-11-02 15:16:53,925,-109,89,-12,-22,-5,23,-23,96,31.6,32.76,1018.09,1,0
2022-11-02 15:16:53,925,-109,89,-12,-22,-5,23,-23,96,31.6,32.76,1018.09,1,0
2022-11-02 15:16:53,1028,-17,-42,0,-18,3,24,-23,95,31.6,32.77,1018.05,1,0
2022-11-02 15:16:53,1028,-17,-42,0,-18,3,24,-23,95,31.6,32.77,1018.05,1,0
2022-11-02 15:16:53,1028,-17,-42,0,-18,3,24,-23,95,31.6,32.77,1018.05,1,0
2022-11-02 15:16:53,979,-87,-21,36,-17,-3,26,-21,92,31.6,32.77,1018.05,1,0
2022-11-02 15:16:53,979,-87,-21,36,-17,-3,26,-21,92,31.6,32.77,1018.05,1,0
2022-11-02 15:16:53,979,-87,-21,36,-17,-3,26,-21,92,31.6,32.77,1018.05,1,0
2022-11-02 15:16:53,958,5,-101,34,-9,5,28,-17,95,31.6,32.77,1018.05,1,0
2022-11-02 15:16:53,958,5,-101,34,-9,5,28,-17,95,31.6,32.77,1018.05,1,0
2022-11-02 15:16:53,958,5,-101,34,-9,5,28,-17,95,31.6,32.77,1018.05,1,0
2022-11-02 15:16:53,925,0,-148,43,7,-6,30,-16,95,31.6,32.77,1018.05,1,0
2022-11-02 15:16:53,925,0,-148,43,7,-6,30,-16,95,31.6,32.77,1018.05,1,0
2022-11-02 15:16:53,925,0,-148,43,7,-6,30,-16,95,31.6,32.77,1018.05,1,0
2022-11-02 15:16:53,1007,-27,-113,28,10,-7,29,-15,93,31.6,32.77,1018.05,1,0
2022-11-02 15:16:53,1007,-27,-113,28,10,-7,29,-15,93,31.6,32.77,1018.05,1,0
2022-11-02 15:16:53,1007,-27,-113,28,10,-7,29,-15,93,31.6,32.77,1018.05,1,0
2022-11-02 15:16:54,1130,109,-189,35,-2,-7,26,-11,97,31.6,32.77,1018.05,1,0
2022-11-02 15:16:54,1130,109,-189,35,-2,-7,26,-11,97,31.6,32.77,1018.05,1,0
2022-11-02 15:16:54,1130,109,-189,35,-2,-7,26,-11,97,31.6,32.77,1018.05,1,0
2022-11-02 15:16:54,1194,-191,58,29,0,13,28,-5,99,31.6,32.77,1018.05,1,0
2022-11-02 15:16:54,1194,-191,58,29,0,13,28,-5,99,31.6,32.77,1018.05,1,0
2022-11-02 15:16:54,1194,-191,58,29,0,13,28,-5,99,31.6,32.77,1018.05,1,0
2022-11-02 15:16:54,874,40,42,36,8,-7,30,-2,99,31.6,32.77,1018.05,1,0
2022-11-02 15:16:54,874,40,42,36,8,-7,30,-2,99,31.6,32.77,1018.05,1,0
2022-11-02 15:16:54,874,40,42,36,8,-7,30,-2,99,31.6,32.77,1018.05,1,0
2022-11-02 15:16:54,1040,54,87,24,0,-1,29,-1,94,31.6,32.77,1018.05,1,0
2022-11-02 15:16:54,1040,54,87,24,0,-1,29,-1,94,31.6,32.77,1018.05,1,0
2022-11-02 15:16:54,1040,54,87,24,0,-1,29,-1,94,31.6,32.77,1018.05,1,0
2022-11-02 15:16:54,993,11,25,0,6,-18,31,2,102,31.6,32.77,1018.05,1,0
2022-11-02 15:16:54,993,11,25,0,6,-18,31,2,102,31.6,32.77,1018.05,1,0
2022-11-02 15:16:54,993,11,25,0,6,-18,31,2,102,31.6,32.77,1018.05,1,0
2022-11-02 15:16:54,972,193,-15,4,8,-3,29,2,97,31.6,32.77,1018.2,1,0
2022-11-02 15:16:54,972,193,-15,4,8,-3,29,2,97,31.6,32.77,1018.2,1,0
2022-11-02 15:16:54,972,193,-15,4,8,-3,29,2,97,31.6,32.77,1018.2,1,0
2022-11-02 15:16:54,1016,89,37,14,10,0,30,6,102,31.6,32.77,1018.2,1,0
2022-11-02 15:16:54,1016,89,37,14,10,0,30,6,102,31.6,32.77,1018.2,1,0
2022-11-02 15:16:54,1016,89,37,14,10,0,30,6,102,31.6,32.77,1018.2,1,0
2022-11-02 15:16:54,976,119,-11,2,3,12,31,5,100,31.6,32.77,1018.2,1,0
2022-11-02 15:16:54,976,119,-11,2,3,12,31,5,100,31.6,32.77,1018.2,1,0
2022-11-02 15:16:54,976,119,-11,2,3,12,31,5,100,31.6,32.77,1018.2,1,0
2022-11-02 15:16:54,1034,46,46,-7,1,15,28,5,98,31.6,32.77,1018.2,1,0
2022-11-02 15:16:54,1034,46,46,-7,1,15,28,5,98,31.6,32.77,1018.2,1,0
2022-11-02 15:16:54,1034,46,46,-7,1,15,28,5,98,31.6,32.77,1018.2,1,0
2022-11-02 15:16:54,1089,85,-21,-16,-3,-4,27,3,100,31.6,32.77,1018.2,1,0
2022-11-02 15:16:54,1089,85,-21,-16,-3,-4,27,3,100,31.6,32.77,1018.2,1,0
2022-11-02 15:16:54,1089,85,-21,-16,-3,-4,27,3,100,31.6,32.77,1018.2,1,0
2022-11-02 15:16:55,1044,0,152,12,10,-10,32,0,101,31.6,32.77,1018.2,1,0
2022-11-02 15:16:55,1044,0,152,12,10,-10,32,0,101,31.6,32.77,1018.2,1,0
2022-11-02 15:16:55,1044,0,152,12,10,-10,32,0,101,31.6,32.77,1018.2,1,0
2022-11-02 15:16:55,1001,33,13,-3,-19,5,28,0,97,31.6,32.77,1018.2,1,0
2022-11-02 15:16:55,1001,33,13,-3,-19,5,28,0,97,31.6,32.77,1018.2,1,0
2022-11-02 15:16:55,1001,33,13,-3,-19,5,28,0,97,31.6,32.77,1018.2,1,0
2022-11-02 15:16:55,999,-150,-17,12,-8,8,32,2,100,31.6,32.77,1018.2,1,0
2022-11-02 15:16:55,999,-150,-17,12,-8,8,32,2,100,31.6,32.77,1018.2,1,0
2022-11-02 15:16:55,999,-150,-17,12,-8,8,32,2,100,31.6,32.77,1018.2,1,0
2022-11-02 15:16:55,1034,19,-46,29,-13,1,33,2,99,31.6,32.77,1018.2,1,0
2022-11-02 15:16:55,1034,19,-46,29,-13,1,33,2,99,31.6,32.77,1018.2,1,0
2022-11-02 15:16:55,1034,19,-46,29,-13,1,33,2,99,31.6,32.77,1018.2,1,0
2022-11-02 15:16:55,940,-74,-72,26,-3,5,34,1,96,31.6,32.77,1018.2,1,0
2022-11-02 15:16:55,940,-74,-72,26,-3,5,34,1,96,31.6,32.77,1018.2,1,0
2022-11-02 15:16:55,940,-74,-72,26,-3,5,34,1,96,31.6,32.77,1018.2,1,0
2022-11-02 15:16:55,976,5,-113,29,0,0,34,4,96,31.6,32.78,1018.15,1,0
2022-11-02 15:16:55,976,5,-113,29,0,0,34,4,96,31.6,32.78,1018.15,1,0
2022-11-02 15:16:55,976,5,-113,29,0,0,34,4,96,31.6,32.78,1018.15,1,0
2022-11-02 15:16:55,964,-40,-81,30,10,-3,33,6,103,31.6,32.78,1018.15,1,0
2022-11-02 15:16:55,964,-40,-81,30,10,-3,33,6,103,31.6,32.78,1018.15,1,0
2022-11-02 15:16:55,964,-40,-81,30,10,-3,33,6,103,31.6,32.78,1018.15,1,0
2022-11-02 15:16:55,1044,23,-89,35,6,-9,35,10,99,31.6,32.78,1018.15,1,0
2022-11-02 15:16:55,1044,23,-89,35,6,-9,35,10,99,31.6,32.78,1018.15,1,0
2022-11-02 15:16:55,1044,23,-89,35,6,-9,35,10,99,31.6,32.78,1018.15,1,0
2022-11-02 15:16:55,1204,64,3,68,-3,-2,35,12,102,31.6,32.78,1018.15,1,0
2022-11-02 15:16:55,1204,64,3,68,-3,-2,35,12,102,31.6,32.78,1018.15,1,0
2022-11-02 15:16:55,1204,64,3,68,-3,-2,35,12,102,31.6,32.78,1018.15,1,0
2022-11-02 15:16:55,870,-7,-48,35,-10,-3,35,20,99,31.6,32.78,1018.15,1,0
2022-11-02 15:16:55,870,-7,-48,35,-10,-3,35,20,99,31.6,32.78,1018.15,1,0
2022-11-02 15:16:55,870,-7,-48,35,-10,-3,35,20,99,31.6,32.78,1018.15,1,0
2022-11-02 15:16:56,983,-17,163,57,9,-1,37,23,95,31.6,32.78,1018.15,1,0
2022-11-02 15:16:56,983,-17,163,57,9,-1,37,23,95,31.6,32.78,1018.15,1,0
2022-11-02 15:16:56,983,-17,163,57,9,-1,37,23,95,31.6,32.78,1018.15,1,0
2022-11-02 15:16:56,1075,13,119,48,4,-4,37,29,103,31.6,32.78,1018.15,1,0
2022-11-02 15:16:56,1075,13,119,48,4,-4,37,29,103,31.6,32.78,1018.15,1,0
2022-11-02 15:16:56,1075,13,119,48,4,-4,37,29,103,31.6,32.78,1018.15,1,0
2022-11-02 15:16:56,964,74,29,24,7,-16,36,34,99,31.6,32.78,1018.15,1,0
2022-11-02 15:16:56,964,74,29,24,7,-16,36,34,99,31.6,32.78,1018.15,1,0
2022-11-02 15:16:56,964,74,29,24,7,-16,36,34,99,31.6,32.78,1018.15,1,0
2022-11-02 15:16:56,1005,126,37,25,11,-2,37,39,99,31.6,32.78,1018.15,1,0
2022-11-02 15:16:56,1005,126,37,25,11,-2,37,39,99,31.6,32.78,1018.15,1,0
2022-11-02 15:16:56,1005,126,37,25,11,-2,37,39,99,31.6,32.78,1018.15,1,0
2022-11-02 15:16:56,1018,117,64,23,8,2,35,40,101,31.6,32.78,1018.15,1,0
2022-11-02 15:16:56,1018,117,64,23,8,2,35,40,101,31.6,32.78,1018.15,1,0
2022-11-02 15:16:56,1018,117,64,23,8,2,35,40,101,31.6,32.78,1018.15,1,0
2022-11-02 15:16:56,1007,89,27,15,1,14,33,44,97,31.6,32.78,1018.15,1,0
2022-11-02 15:16:56,1007,89,27,15,1,14,33,44,97,31.6,32.78,1018.15,1,0
2022-11-02 15:16:56,1007,89,27,15,1,14,33,44,97,31.6,32.78,1018.15,1,0
2022-11-02 15:16:56,1044,83,7,4,-8,11,34,45,97,31.6,32.78,1018.15,1,0
2022-11-02 15:16:56,1044,83,7,4,-8,11,34,45,97,31.6,32.78,1018.15,1,0
2022-11-02 15:16:56,1044,83,7,4,-8,11,34,45,97,31.6,32.78,1018.15,1,0
2022-11-02 15:16:56,1108,193,40,-3,-1,-9,36,42,93,31.6,32.78,1018.15,1,0
2022-11-02 15:16:56,1108,193,40,-3,-1,-9,36,42,93,31.6,32.78,1018.15,1,0
2022-11-02 15:16:56,1108,193,40,-3,-1,-9,36,42,93,31.6,32.78,1018.15,1,0
2022-11-02 15:16:56,1015,-66,91,13,-9,0,36,41,91,31.6,32.78,1018.15,1,0
2022-11-02 15:16:56,1015,-66,91,13,-9,0,36,41,91,31.6,32.78,1018.15,1,0
2022-11-02 15:16:56,1015,-66,91,13,-9,0,36,41,91,31.6,32.78,1018.15,1,0
2022-11-02 15:16:56,929,-83,50,19,-12,7,35,45,92,31.6,32.78,1018.15,1,0
2022-11-02 15:16:56,929,-83,50,19,-12,7,35,45,92,31.6,32.78,1018.15,1,0
2022-11-02 15:16:56,929,-83,50,19,-12,7,35,45,92,31.6,32.78,1018.15,1,0
2022-11-02 15:16:57,1114,-35,-27,21,-10,1,39,47,88,31.6,32.78,1018.15,1,0
2022-11-02 15:16:57,1114,-35,-27,21,-10,1,39,47,88,31.6,32.78,1018.15,1,0
2022-11-02 15:16:57,1114,-35,-27,21,-10,1,39,47,88,31.6,32.78,1018.15,1,0
2022-11-02 15:16:57,964,-46,-25,43,-2,6,37,47,90,31.6,32.78,1018.15,1,0
2022-11-02 15:16:57,964,-46,-25,43,-2,6,37,47,90,31.6,32.78,1018.15,1,0
2022-11-02 15:16:57,964,-46,-25,43,-2,6,37,47,90,31.6,32.78,1018.15,1,0
2022-11-02 15:16:57,1005,-40,-25,31,0,7,38,50,86,31.6,32.78,1018.15,1,0
2022-11-02 15:16:57,1005,-40,-25,31,0,7,38,50,86,31.6,32.78,1018.15,1,0
2022-11-02 15:16:57,1005,-40,-25,31,0,7,38,50,86,31.6,32.78,1018.15,1,0
2022-11-02 15:16:57,1015,-68,-68,38,6,2,40,51,81,31.6,32.78,1018.15,1,0
2022-11-02 15:16:57,1015,-68,-68,38,6,2,40,51,81,31.6,32.78,1018.15,1,0
2022-11-02 15:16:57,1015,-68,-68,38,6,2,40,51,81,31.6,32.78,1018.15,1,0
2022-11-02 15:16:57,983,-68,-76,33,9,-2,36,51,82,31.6,32.78,1018.15,1,0
2022-11-02 15:16:57,983,-68,-76,33,9,-2,36,51,82,31.6,32.78,1018.15,1,0
2022-11-02 15:16:57,983,-68,-76,33,9,-2,36,51,82,31.6,32.78,1018.15,1,0
2022-11-02 15:16:57,1036,-39,-81,38,2,-11,40,51,77,31.6,32.78,1018.12,1,0
2022-11-02 15:16:57,1036,-39,-81,38,2,-11,40,51,77,31.6,32.78,1018.12,1,0
2022-11-02 15:16:57,1036,-39,-81,38,2,-11,40,51,77,31.6,32.78,1018.12,1,0
2022-11-02 15:16:57,1249,-17,124,35,-1,-1,39,56,76,31.6,32.78,1018.12,1,0
2022-11-02 15:16:57,1249,-17,124,35,-1,-1,39,56,76,31.6,32.78,1018.12,1,0
2022-11-02 15:16:57,1249,-17,124,35,-1,-1,39,56,76,31.6,32.78,1018.12,1,0
2022-11-02 15:16:57,909,40,-29,27,-5,-7,40,55,73,31.6,32.78,1018.12,1,0
2022-11-02 15:16:57,909,40,-29,27,-5,-7,40,55,73,31.6,32.78,1018.12,1,0
2022-11-02 15:16:57,909,40,-29,27,-5,-7,40,55,73,31.6,32.78,1018.12,1,0
2022-11-02 15:16:57,1018,-44,126,25,0,-6,38,57,62,31.6,32.78,1018.12,1,0
2022-11-02 15:16:57,1018,-44,126,25,0,-6,38,57,62,31.6,32.78,1018.12,1,0
2022-11-02 15:16:57,1018,-44,126,25,0,-6,38,57,62,31.6,32.78,1018.12,1,0
2022-11-02 15:16:57,1015,78,103,17,2,-5,39,57,66,31.6,32.78,1018.12,1,0
2022-11-02 15:16:57,1015,78,103,17,2,-5,39,57,66,31.6,32.78,1018.12,1,0
2022-11-02 15:16:57,1015,78,103,17,2,-5,39,57,66,31.6,32.78,1018.12,1,0
2022-11-02 15:16:58,1015,66,37,-2,0,-13,39,57,61,31.6,32.78,1018.12,1,0
2022-11-02 15:16:58,1015,66,37,-2,0,-13,39,57,61,31.6,32.78,1018.12,1,0
2022-11-02 15:16:58,1015,66,37,-2,0,-13,39,57,61,31.6,32.78,1018.12,1,0
2022-11-02 15:16:58,989,124,13,-6,5,-4,36,57,62,31.6,32.78,1018.12,1,0
2022-11-02 15:16:58,989,124,13,-6,5,-4,36,57,62,31.6,32.78,1018.12,1,0
2022-11-02 15:16:58,989,124,13,-6,5,-4,36,57,62,31.6,32.78,1018.12,1,0
2022-11-02 15:16:58,1005,97,29,-7,3,2,38,59,64,31.6,32.78,1018.12,1,0
2022-11-02 15:16:58,1005,97,29,-7,3,2,38,59,64,31.6,32.78,1018.12,1,0
2022-11-02 15:16:58,1005,97,29,-7,3,2,38,59,64,31.6,32.78,1018.12,1,0
2022-11-02 15:16:58,1026,89,13,-18,2,10,36,57,67,31.6,32.78,1018.12,1,0
2022-11-02 15:16:58,1026,89,13,-18,2,10,36,57,67,31.6,32.78,1018.12,1,0
2022-11-02 15:16:58,1026,89,13,-18,2,10,36,57,67,31.6,32.78,1018.12,1,0
2022-11-02 15:16:58,1016,97,1,-23,-3,17,37,57,65,31.6,32.78,1018.12,1,0
2022-11-02 15:16:58,1016,97,1,-23,-3,17,37,57,65,31.6,32.78,1018.12,1,0
2022-11-02 15:16:58,1016,97,1,-23,-3,17,37,57,65,31.6,32.78,1018.12,1,0
2022-11-02 15:16:58,1018,60,-31,-28,-7,12,39,54,68,31.6,32.8,1018.16,1,0
2022-11-02 15:16:58,1018,60,-31,-28,-7,12,39,54,68,31.6,32.8,1018.16,1,0
2022-11-02 15:16:58,1018,60,-31,-28,-7,12,39,54,68,31.6,32.8,1018.16,1,0
2022-11-02 15:16:58,1071,50,-19,-42,-3,4,39,51,68,31.6,32.8,1018.16,1,0
2022-11-02 15:16:58,1071,50,-19,-42,-3,4,39,51,68,31.6,32.8,1018.16,1,0
2022-11-02 15:16:58,1071,50,-19,-42,-3,4,39,51,68,31.6,32.8,1018.16,1,0
2022-11-02 15:16:58,1040,74,87,-1,8,-12,39,51,76,31.6,32.8,1018.16,1,0
2022-11-02 15:16:58,1040,74,87,-1,8,-12,39,51,76,31.6,32.8,1018.16,1,0
2022-11-02 15:16:58,1040,74,87,-1,8,-12,39,51,76,31.6,32.8,1018.16,1,0
2022-11-02 15:16:58,1032,-23,50,-14,-3,6,41,51,76,31.6,32.8,1018.16,1,0
2022-11-02 15:16:58,1032,-23,50,-14,-3,6,41,51,76,31.6,32.8,1018.16,1,0
2022-11-02 15:16:58,1032,-23,50,-14,-3,6,41,51,76,31.6,32.8,1018.16,1,0
2022-11-02 15:16:58,1015,-111,39,5,-6,8,37,50,73,31.6,32.8,1018.16,1,0
2022-11-02 15:16:58,1015,-111,39,5,-6,8,37,50,73,31.6,32.8,1018.16,1,0
2022-11-02 15:16:58,1015,-111,39,5,-6,8,37,50,73,31.6,32.8,1018.16,1,0
2022-11-02 15:16:59,1015,-60,-23,5,-10,6,38,51,76,31.6,32.8,1018.16,1,0
2022-11-02 15:16:59,1015,-60,-23,5,-10,6,38,51,76,31.6,32.8,1018.16,1,0
2022-11-02 15:16:59,1015,-60,-23,5,-10,6,38,51,76,31.6,32.8,1018.16,1,0
2022-11-02 15:16:59,1005,-37,-72,32,-12,0,41,49,79,31.6,32.8,1018.16,1,0
2022-11-02 15:16:59,1005,-37,-72,32,-12,0,41,49,79,31.6,32.8,1018.16,1,0
2022-11-02 15:16:59,1005,-37,-72,32,-12,0,41,49,79,31.6,32.8,1018.16,1,0
2022-11-02 15:16:59,993,-95,-70,31,-10,3,42,49,72,31.6,32.8,1018.16,1,0
2022-11-02 15:16:59,993,-95,-70,31,-10,3,42,49,72,31.6,32.8,1018.16,1,0
2022-11-02 15:16:59,993,-95,-70,31,-10,3,42,49,72,31.6,32.8,1018.16,1,0
2022-11-02 15:16:59,966,-70,-66,33,-5,0,41,52,66,31.6,32.8,1018.16,1,0
2022-11-02 15:16:59,966,-70,-66,33,-5,0,41,52,66,31.6,32.8,1018.16,1,0
2022-11-02 15:16:59,966,-70,-66,33,-5,0,41,52,66,31.6,32.8,1018.16,1,0
2022-11-02 15:16:59,1001,-103,-54,33,3,-4,40,50,68,31.6,32.8,1018.16,1,0
2022-11-02 15:16:59,1001,-103,-54,33,3,-4,40,50,68,31.6,32.8,1018.16,1,0
2022-11-02 15:16:59,1001,-103,-54,33,3,-4,40,50,68,31.6,32.8,1018.16,1,0
2022-11-02 15:16:59,968,0,-87,31,3,-10,40,54,60,31.6,32.8,1018.12,1,0
2022-11-02 15:16:59,968,0,-87,31,3,-10,40,54,60,31.6,32.8,1018.12,1,0
2022-11-02 15:16:59,968,0,-87,31,3,-10,40,54,60,31.6,32.8,1018.12,1,0
2022-11-02 15:16:59,1005,13,-126,45,5,-12,39,58,62,31.6,32.8,1018.12,1,0
2022-11-02 15:16:59,1005,13,-126,45,5,-12,39,58,62,31.6,32.8,1018.12,1,0
2022-11-02 15:16:59,1005,13,-126,45,5,-12,39,58,62,31.6,32.8,1018.12,1,0
2022-11-02 15:16:59,1071,-31,-76,44,5,-7,38,57,58,31.6,32.8,1018.12,1,0
2022-11-02 15:16:59,1071,-31,-76,44,5,-7,38,57,58,31.6,32.8,1018.12,1,0
2022-11-02 15:16:59,1071,-31,-76,44,5,-7,38,57,58,31.6,32.8,1018.12,1,0
2022-11-02 15:16:59,1143,-144,64,26,1,1,37,60,58,31.6,32.8,1018.12,1,0
2022-11-02 15:16:59,1143,-144,64,26,1,1,37,60,58,31.6,32.8,1018.12,1,0
2022-11-02 15:16:59,1143,-144,64,26,1,1,37,60,58,31.6,32.8,1018.12,1,0
2022-11-02 15:16:59,942,15,-23,24,1,-3,37,60,58,31.6,32.8,1018.12,1,0
2022-11-02 15:16:59,942,15,-23,24,1,-3,37,60,58,31.6,32.8,1018.12,1,0
2022-11-02 15:16:59,942,15,-23,24,1,-3,37,60,58,31.6,32.8,1018.12,1,0
2022-11-02 15:17:00,1013,-64,58,10,7,-5,35,60,48,31.6,32.8,1018.12,1,0
2022-11-02 15:17:00,1013,-64,58,10,7,-5,35,60,48,31.6,32.8,1018.12,1,0
2022-11-02 15:17:00,1013,-64,58,10,7,-5,35,60,48,31.6,32.8,1018.12,1,0
2022-11-02 15:17:00,987,60,50,12,2,-5,35,62,53,31.6,32.8,1018.12,1,0
2022-11-02 15:17:00,987,60,50,12,2,-5,35,62,53,31.6,32.8,1018.12,1,0
2022-11-02 15:17:00,987,60,50,12,2,-5,35,62,53,31.6,32.8,1018.12,1,0
2022-11-02 15:17:00,1048,48,23,12,1,-6,36,59,48,31.6,32.8,1018.12,1,0
2022-11-02 15:17:00,1048,48,23,12,1,-6,36,59,48,31.6,32.8,1018.12,1,0
2022-11-02 15:17:00,1048,48,23,12,1,-6,36,59,48,31.6,32.8,1018.12,1,0
2022-11-02 15:17:00,1001,74,31,0,7,-9,34,64,47,31.6,32.8,1018.12,1,0
2022-11-02 15:17:00,1001,74,31,0,7,-9,34,64,47,31.6,32.8,1018.12,1,0
2022-11-02 15:17:00,1001,74,31,0,7,-9,34,64,47,31.6,32.8,1018.12,1,0
2022-11-02 15:17:00,1015,91,42,-4,2,-3,33,60,46,31.6,32.8,1018.12,1,0
2022-11-02 15:17:00,1015,91,42,-4,2,-3,33,60,46,31.6,32.8,1018.12,1,0
2022-11-02 15:17:00,1015,91,42,-4,2,-3,33,60,46,31.6,32.8,1018.12,1,0
2022-11-02 15:17:00,999,93,-1,-7,2,3,33,62,46,31.6,32.81,1018.16,1,0
2022-11-02 15:17:00,999,93,-1,-7,2,3,33,62,46,31.6,32.81,1018.16,1,0
2022-11-02 15:17:00,999,93,-1,-7,2,3,33,62,46,31.6,32.81,1018.16,1,0
2022-11-02 15:17:00,1024,97,3,-12,1,12,33,65,45,31.6,32.81,1018.16,1,0
2022-11-02 15:17:00,1024,97,3,-12,1,12,33,65,45,31.6,32.81,1018.16,1,0
2022-11-02 15:17:00,1024,97,3,-12,1,12,33,65,45,31.6,32.81,1018.16,1,0
2022-11-02 15:17:00,1013,85,-21,-19,-8,10,32,62,50,31.6,32.81,1018.16,1,0
2022-11-02 15:17:00,1013,85,-21,-19,-8,10,32,62,50,31.6,32.81,1018.16,1,0
2022-11-02 15:17:00,1013,85,-21,-19,-8,10,32,62,50,31.6,32.81,1018.16,1,0
2022-11-02 15:17:00,1005,193,-46,-19,-16,-4,34,66,55,31.6,32.81,1018.16,1,0
2022-11-02 15:17:00,1005,193,-46,-19,-16,-4,34,66,55,31.6,32.81,1018.16,1,0
2022-11-02 15:17:00,1005,193,-46,-19,-16,-4,34,66,55,31.6,32.81,1018.16,1,0
2022-11-02 15:17:00,1100,-50,60,17,3,-15,35,60,49,31.6,32.81,1018.16,1,0
2022-11-02 15:17:00,1100,-50,60,17,3,-15,35,60,49,31.6,32.81,1018.16,1,0
2022-11-02 15:17:00,1100,-50,60,17,3,-15,35,60,49,31.6,32.81,1018.16,1,0
2022-11-02 15:17:01,1005,11,46,-1,-6,5,31,64,55,31.6,32.81,1018.16,1,0
2022-11-02 15:17:01,1005,11,46,-1,-6,5,31,64,55,31.6,32.81,1018.16,1,0
2022-11-02 15:17:01,1005,11,46,-1,-6,5,31,64,55,31.6,32.81,1018.16,1,0
2022-11-02 15:17:01,989,-76,9,25,-2,9,27,62,55,31.6,32.81,1018.16,1,0
2022-11-02 15:17:01,989,-76,9,25,-2,9,27,62,55,31.6,32.81,1018.16,1,0
2022-11-02 15:17:01,989,-76,9,25,-2,9,27,62,55,31.6,32.81,1018.16,1,0
2022-11-02 15:17:01,1057,-54,-27,15,-4,7,28,63,49,31.6,32.81,1018.16,1,0
2022-11-02 15:17:01,1057,-54,-27,15,-4,7,28,63,49,31.6,32.81,1018.16,1,0
2022-11-02 15:17:01,1057,-54,-27,15,-4,7,28,63,49,31.6,32.81,1018.16,1,0
2022-11-02 15:17:01,995,-56,-23,31,0,8,27,62,49,31.6,32.81,1018.16,1,0
2022-11-02 15:17:01,995,-56,-23,31,0,8,27,62,49,31.6,32.81,1018.16,1,0
2022-11-02 15:17:01,995,-56,-23,31,0,8,27,62,49,31.6,32.81,1018.16,1,0
2022-11-02 15:17:01,1020,-40,-52,23,-1,7,31,63,46,31.6,32.81,1018.16,1,0
2022-11-02 15:17:01,1020,-40,-52,23,-1,7,31,63,46,31.6,32.81,1018.16,1,0
2022-11-02 15:17:01,1020,-40,-52,23,-1,7,31,63,46,31.6,32.81,1018.16,1,0
2022-11-02 15:17:01,976,-87,-44,26,4,2,27,61,43,31.6,32.82,1018.12,1,0
2022-11-02 15:17:01,976,-87,-44,26,4,2,27,61,43,31.6,32.82,1018.12,1,0
2022-11-02 15:17:01,976,-87,-44,26,4,2,27,61,43,31.6,32.82,1018.12,1,0
2022-11-02 15:17:01,1009,-64,-62,25,3,-3,29,61,42,31.6,32.82,1018.12,1,0
2022-11-02 15:17:01,1009,-64,-62,25,3,-3,29,61,42,31.6,32.82,1018.12,1,0
2022-11-02 15:17:01,1009,-64,-62,25,3,-3,29,61,42,31.6,32.82,1018.12,1,0
2022-11-02 15:17:01,1013,-83,-54,21,4,-3,29,59,45,31.6,32.82,1018.12,1,0
2022-11-02 15:17:01,1013,-83,-54,21,4,-3,29,59,45,31.6,32.82,1018.12,1,0
2022-11-02 15:17:01,1013,-83,-54,21,4,-3,29,59,45,31.6,32.82,1018.12,1,0
2022-11-02 15:17:01,1001,-13,-64,23,6,-7,29,61,39,31.6,32.82,1018.12,1,0
2022-11-02 15:17:01,1001,-13,-64,23,6,-7,29,61,39,31.6,32.82,1018.12,1,0
2022-11-02 15:17:01,1001,-13,-64,23,6,-7,29,61,39,31.6,32.82,1018.12,1,0
2022-11-02 15:17:01,1177,74,-158,34,-3,-8,27,60,38,31.6,32.82,1018.12,1,0
2022-11-02 15:17:01,1177,74,-158,34,-3,-8,27,60,38,31.6,32.82,1018.12,1,0
2022-11-02 15:17:01,1177,74,-158,34,-3,-8,27,60,38,31.6,32.82,1018.12,1,0
2022-11-02 15:17:02,974,-160,50,44,-12,3,24,61,34,31.6,32.82,1018.12,1,0
2022-11-02 15:17:02,974,-160,50,44,-12,3,24,61,34,31.6,32.82,1018.12,1,0
2022-11-02 15:17:02,974,-160,50,44,-12,3,24,61,34,31.6,32.82,1018.12,1,0
2022-11-02 15:17:02,1028,-21,31,25,-1,3,25,56,31,31.6,32.82,1018.12,1,0
2022-11-02 15:17:02,1028,-21,31,25,-1,3,25,56,31,31.6,32.82,1018.12,1,0
2022-11-02 15:17:02,1028,-21,31,25,-1,3,25,56,31,31.6,32.82,1018.12,1,0
2022-11-02 15:17:02,987,23,46,16,11,-15,23,57,24,31.6,32.82,1018.12,1,0
2022-11-02 15:17:02,987,23,46,16,11,-15,23,57,24,31.6,32.82,1018.12,1,0
2022-11-02 15:17:02,987,23,46,16,11,-15,23,57,24,31.6,32.82,1018.12,1,0
2022-11-02 15:17:02,1007,62,85,7,12,-14,22,55,28,31.6,32.82,1018.12,1,0
2022-11-02 15:17:02,1007,62,85,7,12,-14,22,55,28,31.6,32.82,1018.12,1,0
2022-11-02 15:17:02,1007,62,85,7,12,-14,22,55,28,31.6,32.82,1018.12,1,0
2022-11-02 15:17:02,1011,107,23,-16,5,-11,24,60,29,31.6,32.82,1018.12,1,0
2022-11-02 15:17:02,1011,107,23,-16,5,-11,24,60,29,31.6,32.82,1018.12,1,0
2022-11-02 15:17:02,1011,107,23,-16,5,-11,24,60,29,31.6,32.82,1018.12,1,0
2022-11-02 15:17:02,997,136,40,-6,6,-3,21,58,24,31.6,32.82,1018.12,1,0
2022-11-02 15:17:02,997,136,40,-6,6,-3,21,58,24,31.6,32.82,1018.12,1,0
2022-11-02 15:17:02,997,136,40,-6,6,-3,21,58,24,31.6,32.82,1018.12,1,0
2022-11-02 15:17:02,1005,121,52,-7,2,0,22,59,27,31.6,32.82,1018.12,1,0
2022-11-02 15:17:02,1005,121,52,-7,2,0,22,59,27,31.6,32.82,1018.12,1,0
2022-11-02 15:17:02,1005,121,52,-7,2,0,22,59,27,31.6,32.82,1018.12,1,0
2022-11-02 15:17:02,1009,130,19,-2,0,3,20,60,28,31.6,32.82,1018.12,1,0
2022-11-02 15:17:02,1009,130,19,-2,0,3,20,60,28,31.6,32.82,1018.12,1,0
2022-11-02 15:17:02,1009,130,19,-2,0,3,20,60,28,31.6,32.82,1018.12,1,0
2022-11-02 15:17:02,1022,122,39,-5,0,11,21,60,30,31.6,32.82,1018.12,1,0
2022-11-02 15:17:02,1022,122,39,-5,0,11,21,60,30,31.6,32.82,1018.12,1,0
2022-11-02 15:17:02,1022,122,39,-5,0,11,21,60,30,31.6,32.82,1018.12,1,0
2022-11-02 15:17:02,1007,83,5,-10,-4,11,22,59,30,31.6,32.82,1018.12,1,0
2022-11-02 15:17:02,1007,83,5,-10,-4,11,22,59,30,31.6,32.82,1018.12,1,0
2022-11-02 15:17:02,1007,83,5,-10,-4,11,22,59,30,31.6,32.82,1018.12,1,0
2022-11-02 15:17:03,1122,13,-15,-20,-3,6,22,57,35,31.6,32.82,1018.12,1,0
2022-11-02 15:17:03,1122,13,-15,-20,-3,6,22,57,35,31.6,32.82,1018.12,1,0
2022-11-02 15:17:03,1122,13,-15,-20,-3,6,22,57,35,31.6,32.82,1018.12,1,0
2022-11-02 15:17:03,1020,3,87,-4,6,-5,20,58,29,31.6,32.82,1018.12,1,0
2022-11-02 15:17:03,1020,3,87,-4,6,-5,20,58,29,31.6,32.82,1018.12,1,0
2022-11-02 15:17:03,1020,3,87,-4,6,-5,20,58,29,31.6,32.82,1018.12,1,0
2022-11-02 15:17:03,1020,144,-15,-2,-5,0,20,62,33,31.6,32.82,1018.12,1,0
2022-11-02 15:17:03,1020,144,-15,-2,-5,0,20,62,33,31.6,32.82,1018.12,1,0
2022-11-02 15:17:03,1020,144,-15,-2,-5,0,20,62,33,31.6,32.82,1018.12,1,0
2022-11-02 15:17:03,1026,-78,56,14,-5,10,20,61,34,31.6,32.82,1018.12,1,0
2022-11-02 15:17:03,1026,-78,56,14,-5,10,20,61,34,31.6,32.82,1018.12,1,0
2022-11-02 15:17:03,1026,-78,56,14,-5,10,20,61,34,31.6,32.82,1018.12,1,0
2022-11-02 15:17:03,989,-81,25,19,-3,10,21,58,34,31.6,32.82,1018.12,1,0
2022-11-02 15:17:03,989,-81,25,19,-3,10,21,58,34,31.6,32.82,1018.12,1,0
2022-11-02 15:17:03,989,-81,25,19,-3,10,21,58,34,31.6,32.82,1018.12,1,0
2022-11-02 15:17:03,1042,-15,-25,31,-8,5,20,61,35,31.6,32.85,1018.13,1,0
2022-11-02 15:17:03,1042,-15,-25,31,-8,5,20,61,35,31.6,32.85,1018.13,1,0
2022-11-02 15:17:03,1042,-15,-25,31,-8,5,20,61,35,31.6,32.85,1018.13,1,0
2022-11-02 15:17:03,1009,-66,-27,41,-6,2,18,54,29,31.6,32.85,1018.13,1,0
2022-11-02 15:17:03,1009,-66,-27,41,-6,2,18,54,29,31.6,32.85,1018.13,1,0
2022-11-02 15:17:03,1009,-66,-27,41,-6,2,18,54,29,31.6,32.85,1018.13,1,0
2022-11-02 15:17:03,995,-68,-33,28,-2,2,18,55,24,31.6,32.85,1018.13,1,0
2022-11-02 15:17:03,995,-68,-33,28,-2,2,18,55,24,31.6,32.85,1018.13,1,0
2022-11-02 15:17:03,995,-68,-33,28,-2,2,18,55,24,31.6,32.85,1018.13,1,0
2022-11-02 15:17:03,993,1,-68,34,0,-5,18,52,25,31.6,32.85,1018.13,1,0
2022-11-02 15:17:03,993,1,-68,34,0,-5,18,52,25,31.6,32.85,1018.13,1,0
2022-11-02 15:17:03,993,1,-68,34,0,-5,18,52,25,31.6,32.85,1018.13,1,0
2022-11-02 15:17:03,1016,-76,-52,34,0,-8,18,53,22,31.6,32.85,1018.13,1,0
2022-11-02 15:17:03,1016,-76,-52,34,0,-8,18,53,22,31.6,32.85,1018.13,1,0
2022-11-02 15:17:03,1016,-76,-52,34,0,-8,18,53,22,31.6,32.85,1018.13,1,0
2022-11-02 15:17:04,1024,78,-152,36,-10,-19,17,49,15,31.6,32.85,1018.13,1,0
2022-11-02 15:17:04,1024,78,-152,36,-10,-19,17,49,15,31.6,32.85,1018.13,1,0
2022-11-02 15:17:04,1024,78,-152,36,-10,-19,17,49,15,31.6,32.85,1018.13,1,0
2022-11-02 15:17:04,1214,-126,95,38,1,0,13,48,15,31.6,32.85,1018.13,1,0
2022-11-02 15:17:04,1214,-126,95,38,1,0,13,48,15,31.6,32.85,1018.13,1,0
2022-11-02 15:17:04,1214,-126,95,38,1,0,13,48,15,31.6,32.85,1018.13,1,0
2022-11-02 15:17:04,948,40,-11,30,8,-5,13,48,17,31.6,32.85,1018.13,1,0
2022-11-02 15:17:04,948,40,-11,30,8,-5,13,48,17,31.6,32.85,1018.13,1,0
2022-11-02 15:17:04,948,40,-11,30,8,-5,13,48,17,31.6,32.85,1018.13,1,0
2022-11-02 15:17:04,1013,-1,62,25,7,-4,13,44,9,31.6,32.85,1018.13,1,0
2022-11-02 15:17:04,1013,-1,62,25,7,-4,13,44,9,31.6,32.85,1018.13,1,0
2022-11-02 15:17:04,1013,-1,62,25,7,-4,13,44,9,31.6,32.85,1018.13,1,0
2022-11-02 15:17:04,1022,76,74,28,3,-2,12,44,17,31.6,32.85,1018.13,1,0
2022-11-02 15:17:04,1022,76,74,28,3,-2,12,44,17,31.6,32.85,1018.13,1,0
2022-11-02 15:17:04,1022,76,74,28,3,-2,12,44,17,31.6,32.85,1018.13,1,0
2022-11-02 15:17:04,1018,115,-9,4,5,-9,13,44,12,31.6,32.82,1018.13,1,0
2022-11-02 15:17:04,1018,115,-9,4,5,-9,13,44,12,31.6,32.82,1018.13,1,0
2022-11-02 15:17:04,1018,115,-9,4,5,-9,13,44,12,31.6,32.82,1018.13,1,0
2022-11-02 15:17:04,1011,107,21,5,8,-5,12,41,11,31.6,32.82,1018.13,1,0
2022-11-02 15:17:04,1011,107,21,5,8,-5,12,41,11,31.6,32.82,1018.13,1,0
2022-11-02 15:17:04,1011,107,21,5,8,-5,12,41,11,31.6,32.82,1018.13,1,0
2022-11-02 15:17:04,1015,121,39,2,4,0,14,43,9,31.6,32.82,1018.13,1,0
2022-11-02 15:17:04,1015,121,39,2,4,0,14,43,9,31.6,32.82,1018.13,1,0
2022-11-02 15:17:04,1015,121,39,2,4,0,14,43,9,31.6,32.82,1018.13,1,0
2022-11-02 15:17:04,1015,134,21,3,3,7,15,42,12,31.6,32.82,1018.13,1,0
2022-11-02 15:17:04,1015,134,21,3,3,7,15,42,12,31.6,32.82,1018.13,1,0
2022-11-02 15:17:04,1015,134,21,3,3,7,15,42,12,31.6,32.82,1018.13,1,0
2022-11-02 15:17:04,1016,138,54,4,0,14,14,40,11,31.6,32.82,1018.13,1,0
2022-11-02 15:17:04,1016,138,54,4,0,14,14,40,11,31.6,32.82,1018.13,1,0
2022-11-02 15:17:04,1016,138,54,4,0,14,14,40,11,31.6,32.82,1018.13,1,0
2022-11-02 15:17:05,1011,48,-5,-12,-9,7,15,39,6,31.6,32.82,1018.13,1,0
2022-11-02 15:17:05,1011,48,-5,-12,-9,7,15,39,6,31.6,32.82,1018.13,1,0
2022-11-02 15:17:05,1011,48,-5,-12,-9,7,15,39,6,31.6,32.82,1018.13,1,0
2022-11-02 15:17:05,1126,35,13,-30,0,-4,13,38,12,31.6,32.82,1018.13,1,0
2022-11-02 15:17:05,1126,35,13,-30,0,-4,13,38,12,31.6,32.82,1018.13,1,0
2022-11-02 15:17:05,1126,35,13,-30,0,-4,13,38,12,31.6,32.82,1018.13,1,0
2022-11-02 15:17:05,1028,-66,119,-18,-4,2,13,43,16,31.6,32.82,1018.13,1,0
2022-11-02 15:17:05,1028,-66,119,-18,-4,2,13,43,16,31.6,32.82,1018.13,1,0
2022-11-02 15:17:05,1028,-66,119,-18,-4,2,13,43,16,31.6,32.82,1018.13,1,0
2022-11-02 15:17:05,966,-21,3,-13,-8,15,12,41,17,31.6,32.82,1018.13,1,0
2022-11-02 15:17:05,966,-21,3,-13,-8,15,12,41,17,31.6,32.82,1018.13,1,0
2022-11-02 15:17:05,966,-21,3,-13,-8,15,12,41,17,31.6,32.82,1018.13,1,0
2022-11-02 15:17:05,993,-68,-64,-9,-8,9,12,43,17,31.6,32.82,1018.13,1,0
2022-11-02 15:17:05,993,-68,-64,-9,-8,9,12,43,17,31.6,32.82,1018.13,1,0
2022-11-02 15:17:05,993,-68,-64,-9,-8,9,12,43,17,31.6,32.82,1018.13,1,0
2022-11-02 15:17:05,1050,-113,-56,13,0,7,12,42,12,31.6,32.82,1018.13,1,0
2022-11-02 15:17:05,1050,-113,-56,13,0,7,12,42,12,31.6,32.82,1018.13,1,0
2022-11-02 15:17:05,1050,-113,-56,13,0,7,12,42,12,31.6,32.82,1018.13,1,0
2022-11-02 15:17:05,993,-111,-52,0,-3,10,14,41,10,31.6,32.85,1018.09,1,0
2022-11-02 15:17:05,993,-111,-52,0,-3,10,14,41,10,31.6,32.85,1018.09,1,0
2022-11-02 15:17:05,993,-111,-52,0,-3,10,14,41,10,31.6,32.85,1018.09,1,0
2022-11-02 15:17:05,993,-74,-85,2,3,3,12,40,8,31.6,32.85,1018.09,1,0
2022-11-02 15:17:05,993,-74,-85,2,3,3,12,40,8,31.6,32.85,1018.09,1,0
2022-11-02 15:17:05,993,-74,-85,2,3,3,12,40,8,31.6,32.85,1018.09,1,0
2022-11-02 15:17:05,989,-31,-95,4,4,-4,14,42,11,31.6,32.85,1018.09,1,0
2022-11-02 15:17:05,989,-31,-95,4,4,-4,14,42,11,31.6,32.85,1018.09,1,0
2022-11-02 15:17:05,989,-31,-95,4,4,-4,14,42,11,31.6,32.85,1018.09,1,0
2022-11-02 15:17:05,1001,40,-103,12,0,-12,13,42,16,31.6,32.85,1018.09,1,0
2022-11-02 15:17:05,1001,40,-103,12,0,-12,13,42,16,31.6,32.85,1018.09,1,0
2022-11-02 15:17:05,1001,40,-103,12,0,-12,13,42,16,31.6,32.85,1018.09,1,0
2022-11-02 15:17:06,1206,7,-44,26,-7,-4,13,43,12,31.6,32.85,1018.09,1,0
2022-11-02 15:17:06,1206,7,-44,26,-7,-4,13,43,12,31.6,32.85,1018.09,1,0
2022-11-02 15:17:06,1206,7,-44,26,-7,-4,13,43,12,31.6,32.85,1018.09,1,0
2022-11-02 15:17:06,935,-179,-44,15,-10,2,13,42,11,31.6,32.85,1018.09,1,0
2022-11-02 15:17:06,935,-179,-44,15,-10,2,13,42,11,31.6,32.85,1018.09,1,0
2022-11-02 15:17:06,935,-179,-44,15,-10,2,13,42,11,31.6,32.85,1018.09,1,0
2022-11-02 15:17:06,983,-64,13,10,9,-9,11,38,9,31.6,32.85,1018.09,1,0
2022-11-02 15:17:06,983,-64,13,10,9,-9,11,38,9,31.6,32.85,1018.09,1,0
2022-11-02 15:17:06,983,-64,13,10,9,-9,11,38,9,31.6,32.85,1018.09,1,0
2022-11-02 15:17:06,1026,-50,3,-8,0,-7,9,34,11,31.6,32.85,1018.09,1,0
2022-11-02 15:17:06,1026,-50,3,-8,0,-7,9,34,11,31.6,32.85,1018.09,1,0
2022-11-02 15:17:06,1026,-50,3,-8,0,-7,9,34,11,31.6,32.85,1018.09,1,0
2022-11-02 15:17:06,1030,0,44,-4,0,1,8,39,11,31.6,32.85,1018.09,1,0
2022-11-02 15:17:06,1030,0,44,-4,0,1,8,39,11,31.6,32.85,1018.09,1,0
2022-11-02 15:17:06,1030,0,44,-4,0,1,8,39,11,31.6,32.85,1018.09,1,0
2022-11-02 15:17:06,1007,27,1,-25,0,-9,10,40,12,31.6,32.85,1018.09,1,0
2022-11-02 15:17:06,1007,27,1,-25,0,-9,10,40,12,31.6,32.85,1018.09,1,0
2022-11-02 15:17:06,1007,27,1,-25,0,-9,10,40,12,31.6,32.85,1018.09,1,0
2022-11-02 15:17:06,1016,70,9,-33,7,0,11,41,14,31.6,32.6,1018.08,1,0
2022-11-02 15:17:06,1016,70,9,-33,7,0,11,41,14,31.6,32.6,1018.08,1,0
2022-11-02 15:17:06,1016,70,9,-33,7,0,11,41,14,31.6,32.6,1018.08,1,0
2022-11-02 15:17:06,1024,50,-9,-39,4,2,10,46,13,31.6,32.6,1018.08,1,0
2022-11-02 15:17:06,1024,50,-9,-39,4,2,10,46,13,31.6,32.6,1018.08,1,0
2022-11-02 15:17:06,1024,50,-9,-39,4,2,10,46,13,31.6,32.6,1018.08,1,0
2022-11-02 15:17:06,1007,76,-19,-45,1,7,9,48,18,31.6,32.6,1018.08,1,0
2022-11-02 15:17:06,1007,76,-19,-45,1,7,9,48,18,31.6,32.6,1018.08,1,0
2022-11-02 15:17:06,1007,76,-19,-45,1,7,9,48,18,31.6,32.6,1018.08,1,0
2022-11-02 15:17:06,1034,48,-15,-43,0,5,11,46,19,31.6,32.6,1018.08,1,0
2022-11-02 15:17:06,1034,48,-15,-43,0,5,11,46,19,31.6,32.6,1018.08,1,0
2022-11-02 15:17:06,1034,48,-15,-43,0,5,11,46,19,31.6,32.6,1018.08,1,0
2022-11-02 15:17:07,999,119,-31,-61,-9,0,11,49,21,31.6,32.6,1018.08,1,0
2022-11-02 15:17:07,999,119,-31,-61,-9,0,11,49,21,31.6,32.6,1018.08,1,0
2022-11-02 15:17:07,999,119,-31,-61,-9,0,11,49,21,31.6,32.6,1018.08,1,0
2022-11-02 15:17:07,1149,-72,-5,-52,5,3,10,52,24,31.6,32.6,1018.08,1,0
2022-11-02 15:17:07,1149,-72,-5,-52,5,3,10,52,24,31.6,32.6,1018.08,1,0
2022-11-02 15:17:07,1149,-72,-5,-52,5,3,10,52,24,31.6,32.6,1018.08,1,0
2022-11-02 15:17:07,933,-144,29,-60,-5,11,11,54,33,31.6,32.6,1018.08,1,0
2022-11-02 15:17:07,933,-144,29,-60,-5,11,11,54,33,31.6,32.6,1018.08,1,0
2022-11-02 15:17:07,933,-144,29,-60,-5,11,11,54,33,31.6,32.6,1018.08,1,0
2022-11-02 15:17:07,995,-99,-15,-62,5,14,13,56,42,31.6,32.6,1018.08,1,0
2022-11-02 15:17:07,995,-99,-15,-62,5,14,13,56,42,31.6,32.6,1018.08,1,0
2022-11-02 15:17:07,995,-99,-15,-62,5,14,13,56,42,31.6,32.6,1018.08,1,0
2022-11-02 15:17:07,1028,-95,-58,-61,-2,12,11,54,40,31.6,32.6,1018.08,1,0
2022-11-02 15:17:07,1028,-95,-58,-61,-2,12,11,54,40,31.6,32.6,1018.08,1,0
2022-11-02 15:17:07,1028,-95,-58,-61,-2,12,11,54,40,31.6,32.6,1018.08,1,0
2022-11-02 15:17:07,1038,-124,-76,-46,3,16,12,58,48,31.6,32.6,1018.08,1,0
2022-11-02 15:17:07,1038,-124,-76,-46,3,16,12,58,48,31.6,32.6,1018.08,1,0
2022-11-02 15:17:07,1038,-124,-76,-46,3,16,12,58,48,31.6,32.6,1018.08,1,0
2022-11-02 15:17:07,977,-121,-87,-45,1,12,14,57,50,31.6,32.19,1018.15,1,0
2022-11-02 15:17:07,977,-121,-87,-45,1,12,14,57,50,31.6,32.19,1018.15,1,0
2022-11-02 15:17:07,977,-121,-87,-45,1,12,14,57,50,31.6,32.19,1018.15,1,0
2022-11-02 15:17:07,997,-154,-81,-43,3,5,16,54,51,31.6,32.19,1018.15,1,0
2022-11-02 15:17:07,997,-154,-81,-43,3,5,16,54,51,31.6,32.19,1018.15,1,0
2022-11-02 15:17:07,997,-154,-81,-43,3,5,16,54,51,31.6,32.19,1018.15,1,0
2022-11-02 15:17:07,993,-140,-85,-53,6,0,14,53,56,31.6,32.19,1018.15,1,0
2022-11-02 15:17:07,993,-140,-85,-53,6,0,14,53,56,31.6,32.19,1018.15,1,0
2022-11-02 15:17:07,993,-140,-85,-53,6,0,14,53,56,31.6,32.19,1018.15,1,0
2022-11-02 15:17:07,997,-95,-83,-46,7,-2,14,52,59,31.6,32.19,1018.15,1,0
2022-11-02 15:17:07,997,-95,-83,-46,7,-2,14,52,59,31.6,32.19,1018.15,1,0
2022-11-02 15:17:07,997,-95,-83,-46,7,-2,14,52,59,31.6,32.19,1018.15,1,0
2022-11-02 15:17:08,1018,-70,-128,-19,5,-6,15,52,64,31.6,32.19,1018.15,1,0
2022-11-02 15:17:08,1018,-70,-128,-19,5,-6,15,52,64,31.6,32.19,1018.15,1,0
2022-11-02 15:17:08,1018,-70,-128,-19,5,-6,15,52,64,31.6,32.19,1018.15,1,0
2022-11-02 15:17:08,985,-101,-140,-13,1,-8,16,52,73,31.6,32.19,1018.15,1,0
2022-11-02 15:17:08,985,-101,-140,-13,1,-8,16,52,73,31.6,32.19,1018.15,1,0
2022-11-02 15:17:08,985,-101,-140,-13,1,-8,16,52,73,31.6,32.19,1018.15,1,0
2022-11-02 15:17:08,1016,-50,-101,-14,7,-14,13,52,66,31.6,32.19,1018.15,1,0
2022-11-02 15:17:08,1016,-50,-101,-14,7,-14,13,52,66,31.6,32.19,1018.15,1,0
2022-11-02 15:17:08,1016,-50,-101,-14,7,-14,13,52,66,31.6,32.19,1018.15,1,0
2022-11-02 15:17:08,899,-156,-56,-17,0,-5,13,52,68,31.6,32.19,1018.15,1,0
2022-11-02 15:17:08,899,-156,-56,-17,0,-5,13,52,68,31.6,32.19,1018.15,1,0
2022-11-02 15:17:08,899,-156,-56,-17,0,-5,13,52,68,31.6,32.19,1018.15,1,0
2022-11-02 15:17:08,1036,-72,-5,-40,6,-6,11,50,69,31.6,32.19,1018.15,1,0
2022-11-02 15:17:08,1036,-72,-5,-40,6,-6,11,50,69,31.6,32.19,1018.15,1,0
2022-11-02 15:17:08,1036,-72,-5,-40,6,-6,11,50,69,31.6,32.19,1018.15,1,0
2022-11-02 15:17:08,981,-101,-9,-39,6,-10,12,48,70,31.6,32.19,1018.15,1,0
2022-11-02 15:17:08,981,-101,-9,-39,6,-10,12,48,70,31.6,32.19,1018.15,1,0
2022-11-02 15:17:08,981,-101,-9,-39,6,-10,12,48,70,31.6,32.19,1018.15,1,0
2022-11-02 15:17:08,1040,-13,46,-59,5,-8,12,51,76,31.6,32.86,1018.15,1,0
2022-11-02 15:17:08,1040,-13,46,-59,5,-8,12,51,76,31.6,32.86,1018.15,1,0
2022-11-02 15:17:08,1040,-13,46,-59,5,-8,12,51,76,31.6,32.86,1018.15,1,0
2022-11-02 15:17:08,1020,89,25,-69,-2,-6,10,44,77,31.6,32.86,1018.15,1,0
2022-11-02 15:17:08,1020,89,25,-69,-2,-6,10,44,77,31.6,32.86,1018.15,1,0
2022-11-02 15:17:08,1020,89,25,-69,-2,-6,10,44,77,31.6,32.86,1018.15,1,0
2022-11-02 15:17:08,1015,74,1,-71,-5,-4,9,45,81,31.6,32.86,1018.15,1,0
2022-11-02 15:17:08,1015,74,1,-71,-5,-4,9,45,81,31.6,32.86,1018.15,1,0
2022-11-02 15:17:08,1015,74,1,-71,-5,-4,9,45,81,31.6,32.86,1018.15,1,0
2022-11-02 15:17:08,999,80,-11,-77,-3,2,11,43,83,31.6,32.86,1018.15,1,0
2022-11-02 15:17:08,999,80,-11,-77,-3,2,11,43,83,31.6,32.86,1018.15,1,0
2022-11-02 15:17:08,999,80,-11,-77,-3,2,11,43,83,31.6,32.86,1018.15,1,0
2022-11-02 15:17:09,1024,97,-15,-72,-1,4,11,37,87,31.6,32.86,1018.15,1,0
2022-11-02 15:17:09,1024,97,-15,-72,-1,4,11,37,87,31.6,32.86,1018.15,1,0
2022-11-02 15:17:09,1024,97,-15,-72,-1,4,11,37,87,31.6,32.86,1018.15,1,0
2022-11-02 15:17:09,1020,68,-11,-62,3,5,11,30,93,31.6,32.86,1018.15,1,0
2022-11-02 15:17:09,1020,68,-11,-62,3,5,11,30,93,31.6,32.86,1018.15,1,0
2022-11-02 15:17:09,1020,68,-11,-62,3,5,11,30,93,31.6,32.86,1018.15,1,0
2022-11-02 15:17:09,1030,99,-27,-62,0,7,11,25,89,31.6,32.86,1018.15,1,0
2022-11-02 15:17:09,1030,99,-27,-62,0,7,11,25,89,31.6,32.86,1018.15,1,0
2022-11-02 15:17:09,1030,99,-27,-62,0,7,11,25,89,31.6,32.86,1018.15,1,0
2022-11-02 15:17:09,1022,70,-42,-66,-2,9,11,22,94,31.6,32.86,1018.15,1,0
2022-11-02 15:17:09,1022,70,-42,-66,-2,9,11,22,94,31.6,32.86,1018.15,1,0
2022-11-02 15:17:09,1022,70,-42,-66,-2,9,11,22,94,31.6,32.86,1018.15,1,0
2022-11-02 15:17:09,1007,130,-80,-66,-5,6,12,15,97,31.6,32.86,1018.15,1,0
2022-11-02 15:17:09,1007,130,-80,-66,-5,6,12,15,97,31.6,32.86,1018.15,1,0
2022-11-02 15:17:09,1007,130,-80,-66,-5,6,12,15,97,31.6,32.86,1018.15,1,0
2022-11-02 15:17:09,1085,3,-91,-55,-5,4,14,10,95,31.6,32.86,1018.15,1,0
2022-11-02 15:17:09,1085,3,-91,-55,-5,4,14,10,95,31.6,32.86,1018.15,1,0
2022-11-02 15:17:09,1085,3,-91,-55,-5,4,14,10,95,31.6,32.86,1018.15,1,0
2022-11-02 15:17:09,964,-97,-31,-56,4,9,12,6,93,31.6,32.86,1018.15,1,0
2022-11-02 15:17:09,964,-97,-31,-56,4,9,12,6,93,31.6,32.86,1018.15,1,0
2022-11-02 15:17:09,964,-97,-31,-56,4,9,12,6,93,31.6,32.86,1018.15,1,0
2022-11-02 15:17:09,977,-121,15,-74,7,8,13,3,97,31.6,32.86,1018.15,1,0
2022-11-02 15:17:09,977,-121,15,-74,7,8,13,3,97,31.6,32.86,1018.15,1,0
2022-11-02 15:17:09,977,-121,15,-74,7,8,13,3,97,31.6,32.86,1018.15,1,0
2022-11-02 15:17:09,1038,-64,-19,-87,5,7,13,-3,95,31.6,32.86,1018.15,1,0
2022-11-02 15:17:09,1038,-64,-19,-87,5,7,13,-3,95,31.6,32.86,1018.15,1,0
2022-11-02 15:17:09,1038,-64,-19,-87,5,7,13,-3,95,31.6,32.86,1018.15,1,0
2022-11-02 15:17:09,1065,60,-117,-67,-3,7,12,-12,94,31.6,32.86,1018.15,1,0
2022-11-02 15:17:09,1065,60,-117,-67,-3,7,12,-12,94,31.6,32.86,1018.15,1,0
2022-11-02 15:17:09,1065,60,-117,-67,-3,7,12,-12,94,31.6,32.86,1018.15,1,0
2022-11-02 15:17:10,958,-40,-117,-34,-6,9,11,-18,91,31.6,32.86,1018.15,1,0
2022-11-02 15:17:10,958,-40,-117,-34,-6,9,11,-18,91,31.6,32.86,1018.15,1,0
2022-11-02 15:17:10,958,-40,-117,-34,-6,9,11,-18,91,31.6,32.86,1018.15,1,0
2022-11-02 15:17:10,989,-50,-152,-22,-2,6,11,-19,88,31.6,32.86,1018.15,1,0
2022-11-02 15:17:10,989,-50,-152,-22,-2,6,11,-19,88,31.6,32.86,1018.15,1,0
2022-11-02 15:17:10,989,-50,-152,-22,-2,6,11,-19,88,31.6,32.86,1018.15,1,0
2022-11-02 15:17:10,935,-74,-181,-10,4,-1,12,-21,85,31.6,32.86,1018.15,1,0
2022-11-02 15:17:10,935,-74,-181,-10,4,-1,12,-21,85,31.6,32.86,1018.15,1,0
2022-11-02 15:17:10,935,-74,-181,-10,4,-1,12,-21,85,31.6,32.86,1018.15,1,0
2022-11-02 15:17:10,1016,-29,-167,0,5,-12,11,-21,84,31.6,32.86,1018.15,1,0
2022-11-02 15:17:10,1016,-29,-167,0,5,-12,11,-21,84,31.6,32.86,1018.15,1,0
2022-11-02 15:17:10,1016,-29,-167,0,5,-12,11,-21,84,31.6,32.86,1018.15,1,0
2022-11-02 15:17:10,1184,72,-70,31,4,-9,12,-21,87,31.6,32.86,1018.15,1,0
2022-11-02 15:17:10,1184,72,-70,31,4,-9,12,-21,87,31.6,32.86,1018.15,1,0
2022-11-02 15:17:10,1184,72,-70,31,4,-9,12,-21,87,31.6,32.86,1018.15,1,0
2022-11-02 15:17:10,958,-146,-42,20,0,-8,13,-20,83,31.6,32.86,1018.15,1,0
2022-11-02 15:17:10,958,-146,-42,20,0,-8,13,-20,83,31.6,32.86,1018.15,1,0
2022-11-02 15:17:10,958,-146,-42,20,0,-8,13,-20,83,31.6,32.86,1018.15,1,0
2022-11-02 15:17:10,983,-81,64,14,11,-7,11,-18,86,31.6,32.87,1018.12,1,0
2022-11-02 15:17:10,983,-81,64,14,11,-7,11,-18,86,31.6,32.87,1018.12,1,0
2022-11-02 15:17:10,983,-81,64,14,11,-7,11,-18,86,31.6,32.87,1018.12,1,0
2022-11-02 15:17:10,1034,87,40,5,4,-8,11,-19,90,31.6,32.87,1018.12,1,0
2022-11-02 15:17:10,1034,87,40,5,4,-8,11,-19,90,31.6,32.87,1018.12,1,0
2022-11-02 15:17:10,1034,87,40,5,4,-8,11,-19,90,31.6,32.87,1018.12,1,0
2022-11-02 15:17:10,995,72,27,-21,7,-16,11,-16,90,31.6,32.87,1018.12,1,0
2022-11-02 15:17:10,995,72,27,-21,7,-16,11,-16,90,31.6,32.87,1018.12,1,0
2022-11-02 15:17:10,995,72,27,-21,7,-16,11,-16,90,31.6,32.87,1018.12,1,0
2022-11-02 15:17:10,1001,138,54,-16,9,-4,13,-17,87,31.6,32.87,1018.12,1,0
2022-11-02 15:17:10,1001,138,54,-16,9,-4,13,-17,87,31.6,32.87,1018.12,1,0
2022-11-02 15:17:10,1001,138,54,-16,9,-4,13,-17,87,31.6,32.87,1018.12,1,0
2022-11-02 15:17:11,1011,42,33,-23,2,0,13,-17,92,31.6,32.87,1018.12,1,0
2022-11-02 15:17:11,1011,42,33,-23,2,0,13,-17,92,31.6,32.87,1018.12,1,0
2022-11-02 15:17:11,1011,42,33,-23,2,0,13,-17,92,31.6,32.87,1018.12,1,0
2022-11-02 15:17:11,1003,119,17,-27,1,4,11,-20,88,31.6,32.87,1018.12,1,0
2022-11-02 15:17:11,1003,119,17,-27,1,4,11,-20,88,31.6,32.87,1018.12,1,0
2022-11-02 15:17:11,1003,119,17,-27,1,4,11,-20,88,31.6,32.87,1018.12,1,0
2022-11-02 15:17:11,1020,101,29,-32,0,10,12,-22,87,31.6,32.87,1018.12,1,0
2022-11-02 15:17:11,1020,101,29,-32,0,10,12,-22,87,31.6,32.87,1018.12,1,0
2022-11-02 15:17:11,1020,101,29,-32,0,10,12,-22,87,31.6,32.87,1018.12,1,0
2022-11-02 15:17:11,1013,144,-21,-39,-7,10,10,-24,84,31.6,32.87,1018.12,1,0
2022-11-02 15:17:11,1013,144,-21,-39,-7,10,10,-24,84,31.6,32.87,1018.12,1,0
2022-11-02 15:17:11,1013,144,-21,-39,-7,10,10,-24,84,31.6,32.87,1018.12,1,0
2022-11-02 15:17:11,1128,46,-21,-33,-6,15,11,-27,82,31.6,32.87,1018.12,1,0
2022-11-02 15:17:11,1128,46,-21,-33,-6,15,11,-27,82,31.6,32.87,1018.12,1,0
2022-11-02 15:17:11,1128,46,-21,-33,-6,15,11,-27,82,31.6,32.87,1018.12,1,0
2022-11-02 15:17:11,1042,-46,101,-11,19,3,10,-29,84,31.6,32.87,1018.12,1,0
2022-11-02 15:17:11,1042,-46,101,-11,19,3,10,-29,84,31.6,32.87,1018.12,1,0
2022-11-02 15:17:11,1042,-46,101,-11,19,3,10,-29,84,31.6,32.87,1018.12,1,0
2022-11-02 15:17:11,991,85,-21,-20,-11,10,9,-32,82,31.6,32.89,1018.09,1,0
2022-11-02 15:17:11,991,85,-21,-20,-11,10,9,-32,82,31.6,32.89,1018.09,1,0
2022-11-02 15:17:11,991,85,-21,-20,-11,10,9,-32,82,31.6,32.89,1018.09,1,0
2022-11-02 15:17:11,1024,-119,21,19,-5,2,11,-33,79,31.6,32.89,1018.09,1,0
2022-11-02 15:17:11,1024,-119,21,19,-5,2,11,-33,79,31.6,32.89,1018.09,1,0
2022-11-02 15:17:11,1024,-119,21,19,-5,2,11,-33,79,31.6,32.89,1018.09,1,0
2022-11-02 15:17:11,995,-95,-23,19,-10,5,10,-31,80,31.6,32.89,1018.09,1,0
2022-11-02 15:17:11,995,-95,-23,19,-10,5,10,-31,80,31.6,32.89,1018.09,1,0
2022-11-02 15:17:11,995,-95,-23,19,-10,5,10,-31,80,31.6,32.89,1018.09,1,0
2022-11-02 15:17:11,1009,-167,-23,25,-11,1,11,-32,81,31.6,32.89,1018.09,1,0
2022-11-02 15:17:11,1009,-167,-23,25,-11,1,11,-32,81,31.6,32.89,1018.09,1,0
2022-11-02 15:17:11,1009,-167,-23,25,-11,1,11,-32,81,31.6,32.89,1018.09,1,0
2022-11-02 15:17:12,976,-132,-31,7,-9,2,12,-33,83,31.6,32.89,1018.09,1,0
2022-11-02 15:17:12,976,-132,-31,7,-9,2,12,-33,83,31.6,32.89,1018.09,1,0
2022-11-02 15:17:12,976,-132,-31,7,-9,2,12,-33,83,31.6,32.89,1018.09,1,0
2022-11-02 15:17:12,991,-54,-101,5,-4,0,11,-29,79,31.6,32.89,1018.09,1,0
2022-11-02 15:17:12,991,-54,-101,5,-4,0,11,-29,79,31.6,32.89,1018.09,1,0
2022-11-02 15:17:12,991,-54,-101,5,-4,0,11,-29,79,31.6,32.89,1018.09,1,0
2022-11-02 15:17:12,964,-48,-175,8,0,-8,14,-30,81,31.6,32.89,1018.09,1,0
2022-11-02 15:17:12,964,-48,-175,8,0,-8,14,-30,81,31.6,32.89,1018.09,1,0
2022-11-02 15:17:12,964,-48,-175,8,0,-8,14,-30,81,31.6,32.89,1018.09,1,0
2022-11-02 15:17:12,1005,-58,-140,12,7,-8,16,-27,81,31.6,32.89,1018.09,1,0
2022-11-02 15:17:12,1005,-58,-140,12,7,-8,16,-27,81,31.6,32.89,1018.09,1,0
2022-11-02 15:17:12,1005,-58,-140,12,7,-8,16,-27,81,31.6,32.89,1018.09,1,0
2022-11-02 15:17:12,1108,81,-177,20,-4,-10,14,-28,80,31.6,32.89,1018.09,1,0
2022-11-02 15:17:12,1108,81,-177,20,-4,-10,14,-28,80,31.6,32.89,1018.09,1,0
2022-11-02 15:17:12,1108,81,-177,20,-4,-10,14,-28,80,31.6,32.89,1018.09,1,0
2022-11-02 15:17:12,1104,-185,-5,28,-5,4,18,-26,89,31.6,32.89,1018.09,1,0
2022-11-02 15:17:12,1104,-185,-5,28,-5,4,18,-26,89,31.6,32.89,1018.09,1,0
2022-11-02 15:17:12,1104,-185,-5,28,-5,4,18,-26,89,31.6,32.89,1018.09,1,0
2022-11-02 15:17:12,929,33,-33,13,4,-8,19,-21,87,31.6,32.89,1018.08,1,0
2022-11-02 15:17:12,929,33,-33,13,4,-8,19,-21,87,31.6,32.89,1018.08,1,0
2022-11-02 15:17:12,929,33,-33,13,4,-8,19,-21,87,31.6,32.89,1018.08,1,0
2022-11-02 15:17:12,977,-33,23,3,6,-9,19,-22,85,31.6,32.89,1018.08,1,0
2022-11-02 15:17:12,977,-33,23,3,6,-9,19,-22,85,31.6,32.89,1018.08,1,0
2022-11-02 15:17:12,977,-33,23,3,6,-9,19,-22,85,31.6,32.89,1018.08,1,0
2022-11-02 15:17:12,1011,74,52,11,5,-3,20,-21,86,31.6,32.89,1018.08,1,0
2022-11-02 15:17:12,1011,74,52,11,5,-3,20,-21,86,31.6,32.89,1018.08,1,0
2022-11-02 15:17:12,1011,74,52,11,5,-3,20,-21,86,31.6,32.89,1018.08,1,0
2022-11-02 15:17:12,995,19,-9,-13,11,-14,19,-17,88,31.6,32.89,1018.08,1,0
2022-11-02 15:17:12,995,19,-9,-13,11,-14,19,-17,88,31.6,32.89,1018.08,1,0
2022-11-02 15:17:12,995,19,-9,-13,11,-14,19,-17,88,31.6,32.89,1018.08,1,0
2022-11-02 15:17:13,1022,111,23,-21,11,-14,21,-18,88,31.6,32.89,1018.08,1,0
2022-11-02 15:17:13,1022,111,23,-21,11,-14,21,-18,88,31.6,32.89,1018.08,1,0
2022-11-02 15:17:13,1022,111,23,-21,11,-14,21,-18,88,31.6,32.89,1018.08,1,0
2022-11-02 15:17:13,1007,163,-7,-4,1,-1,25,-19,92,31.6,32.89,1018.08,1,0
2022-11-02 15:17:13,1007,163,-7,-4,1,-1,25,-19,92,31.6,32.89,1018.08,1,0
2022-11-02 15:17:13,1007,163,-7,-4,1,-1,25,-19,92,31.6,32.89,1018.08,1,0
2022-11-02 15:17:13,1009,134,1,-4,0,9,24,-21,89,31.6,32.89,1018.08,1,0
2022-11-02 15:17:13,1009,134,1,-4,0,9,24,-21,89,31.6,32.89,1018.08,1,0
2022-11-02 15:17:13,1009,134,1,-4,0,9,24,-21,89,31.6,32.89,1018.08,1,0
2022-11-02 15:17:13,999,80,9,-13,0,17,24,-21,87,31.6,32.89,1018.08,1,0
2022-11-02 15:17:13,999,80,9,-13,0,17,24,-21,87,31.6,32.89,1018.08,1,0
2022-11-02 15:17:13,999,80,9,-13,0,17,24,-21,87,31.6,32.89,1018.08,1,0
2022-11-02 15:17:13,1003,42,-27,-28,-7,12,24,-22,89,31.6,32.89,1018.08,1,0
2022-11-02 15:17:13,1003,42,-27,-28,-7,12,24,-22,89,31.6,32.89,1018.08,1,0
2022-11-02 15:17:13,1003,42,-27,-28,-7,12,24,-22,89,31.6,32.89,1018.08,1,0
2022-11-02 15:17:13,1116,101,-25,-37,-2,-3,23,-25,88,31.6,32.89,1018.08,1,0
2022-11-02 15:17:13,1116,101,-25,-37,-2,-3,23,-25,88,31.6,32.89,1018.08,1,0
2022-11-02 15:17:13,1116,101,-25,-37,-2,-3,23,-25,88,31.6,32.89,1018.08,1,0
2022-11-02 15:17:13,1100,-89,142,0,8,-3,23,-27,79,31.6,32.9,1018.09,1,0
2022-11-02 15:17:13,1100,-89,142,0,8,-3,23,-27,79,31.6,32.9,1018.09,1,0
2022-11-02 15:17:13,1100,-89,142,0,8,-3,23,-27,79,31.6,32.9,1018.09,1,0
2022-11-02 15:17:13,970,46,-1,-8,-7,5,23,-25,87,31.6,32.9,1018.09,1,0
2022-11-02 15:17:13,970,46,-1,-8,-7,5,23,-25,87,31.6,32.9,1018.09,1,0
2022-11-02 15:17:13,970,46,-1,-8,-7,5,23,-25,87,31.6,32.9,1018.09,1,0
2022-11-02 15:17:13,983,-154,23,2,0,5,26,-28,84,31.6,32.9,1018.09,1,0
2022-11-02 15:17:13,983,-154,23,2,0,5,26,-28,84,31.6,32.9,1018.09,1,0
2022-11-02 15:17:13,983,-154,23,2,0,5,26,-28,84,31.6,32.9,1018.09,1,0
2022-11-02 15:17:13,1112,39,-60,12,-8,0,25,-27,79,31.6,32.9,1018.09,1,0
2022-11-02 15:17:13,1112,39,-60,12,-8,0,25,-27,79,31.6,32.9,1018.09,1,0
2022-11-02 15:17:13,1112,39,-60,12,-8,0,25,-27,79,31.6,32.9,1018.09,1,0
2022-11-02 15:17:14,970,-60,-56,27,-3,7,29,-28,81,31.6,32.9,1018.09,1,0
2022-11-02 15:17:14,970,-60,-56,27,-3,7,29,-28,81,31.6,32.9,1018.09,1,0
2022-11-02 15:17:14,970,-60,-56,27,-3,7,29,-28,81,31.6,32.9,1018.09,1,0
2022-11-02 15:17:14,983,-42,-68,23,2,6,27,-22,84,31.6,32.9,1018.09,1,0
2022-11-02 15:17:14,983,-42,-68,23,2,6,27,-22,84,31.6,32.9,1018.09,1,0
2022-11-02 15:17:14,983,-42,-68,23,2,6,27,-22,84,31.6,32.9,1018.09,1,0
2022-11-02 15:17:14,972,-40,-80,30,7,-2,28,-24,86,31.6,32.9,1018.09,1,0
2022-11-02 15:17:14,972,-40,-80,30,7,-2,28,-24,86,31.6,32.9,1018.09,1,0
2022-11-02 15:17:14,972,-40,-80,30,7,-2,28,-24,86,31.6,32.9,1018.09,1,0
2022-11-02 15:17:14,1009,-95,-60,21,8,-5,27,-20,89,31.6,32.9,1018.09,1,0
2022-11-02 15:17:14,1009,-95,-60,21,8,-5,27,-20,89,31.6,32.9,1018.09,1,0
2022-11-02 15:17:14,1009,-95,-60,21,8,-5,27,-20,89,31.6,32.9,1018.09,1,0
2022-11-02 15:17:14,1100,78,-144,19,-11,-14,26,-22,89,31.6,32.9,1018.09,1,0
2022-11-02 15:17:14,1100,78,-144,19,-11,-14,26,-22,89,31.6,32.9,1018.09,1,0
2022-11-02 15:17:14,1100,78,-144,19,-11,-14,26,-22,89,31.6,32.9,1018.09,1,0
2022-11-02 15:17:14,1083,-226,54,23,-4,8,30,-18,87,31.6,32.9,1018.09,1,0
2022-11-02 15:17:14,1083,-226,54,23,-4,8,30,-18,87,31.6,32.9,1018.09,1,0
2022-11-02 15:17:14,1083,-226,54,23,-4,8,30,-18,87,31.6,32.9,1018.09,1,0
2022-11-02 15:17:14,942,52,31,23,5,-9,29,-16,85,31.6,32.91,1018.12,1,0
2022-11-02 15:17:14,942,52,31,23,5,-9,29,-16,85,31.6,32.91,1018.12,1,0
2022-11-02 15:17:14,942,52,31,23,5,-9,29,-16,85,31.6,32.91,1018.12,1,0
2022-11-02 15:17:14,981,23,80,20,1,-5,32,-15,90,31.6,32.91,1018.12,1,0
2022-11-02 15:17:14,981,23,80,20,1,-5,32,-15,90,31.6,32.91,1018.12,1,0
2022-11-02 15:17:14,981,23,80,20,1,-5,32,-15,90,31.6,32.91,1018.12,1,0
2022-11-02 15:17:14,1061,-7,29,3,2,-10,33,-11,92,31.6,32.91,1018.12,1,0
2022-11-02 15:17:14,1061,-7,29,3,2,-10,33,-11,92,31.6,32.91,1018.12,1,0
2022-11-02 15:17:14,1061,-7,29,3,2,-10,33,-11,92,31.6,32.91,1018.12,1,0
2022-11-02 15:17:14,991,81,9,-7,5,-12,34,-10,90,31.6,32.91,1018.12,1,0
2022-11-02 15:17:14,991,81,9,-7,5,-12,34,-10,90,31.6,32.91,1018.12,1,0
2022-11-02 15:17:14,991,81,9,-7,5,-12,34,-10,90,31.6,32.91,1018.12,1,0
2022-11-02 15:17:15,1011,107,7,-10,6,0,34,-9,89,31.6,32.91,1018.12,1,0
2022-11-02 15:17:15,1011,107,7,-10,6,0,34,-9,89,31.6,32.91,1018.12,1,0
2022-11-02 15:17:15,1011,107,7,-10,6,0,34,-9,89,31.6,32.91,1018.12,1,0
2022-11-02 15:17:15,1007,124,-19,-14,5,8,34,-6,89,31.6,32.91,1018.12,1,0
2022-11-02 15:17:15,1007,124,-19,-14,5,8,34,-6,89,31.6,32.91,1018.12,1,0
2022-11-02 15:17:15,1007,124,-19,-14,5,8,34,-6,89,31.6,32.91,1018.12,1,0
2022-11-02 15:17:15,1013,119,-7,-20,-1,12,35,-10,87,31.6,32.91,1018.12,1,0
2022-11-02 15:17:15,1013,119,-7,-20,-1,12,35,-10,87,31.6,32.91,1018.12,1,0
2022-11-02 15:17:15,1013,119,-7,-20,-1,12,35,-10,87,31.6,32.91,1018.12,1,0
2022-11-02 15:17:15,999,117,-3,-28,-6,5,34,-10,87,31.6,32.91,1018.12,1,0
2022-11-02 15:17:15,999,117,-3,-28,-6,5,34,-10,87,31.6,32.91,1018.12,1,0
2022-11-02 15:17:15,999,117,-3,-28,-6,5,34,-10,87,31.6,32.91,1018.12,1,0
2022-11-02 15:17:15,1190,160,-21,-20,-1,-12,35,-13,89,31.6,32.91,1018.12,1,0
2022-11-02 15:17:15,1190,160,-21,-20,-1,-12,35,-13,89,31.6,32.91,1018.12,1,0
2022-11-02 15:17:15,1190,160,-21,-20,-1,-12,35,-13,89,31.6,32.91,1018.12,1,0
2022-11-02 15:17:15,942,-154,54,-17,-11,5,36,-13,85,31.6,32.91,1018.12,1,0
2022-11-02 15:17:15,942,-154,54,-17,-11,5,36,-13,85,31.6,32.91,1018.12,1,0
2022-11-02 15:17:15,942,-154,54,-17,-11,5,36,-13,85,31.6,32.91,1018.12,1,0
2022-11-02 15:17:15,929,-115,1,-9,-2,5,34,-16,82,31.6,32.91,1018.12,1,0
2022-11-02 15:17:15,929,-115,1,-9,-2,5,34,-16,82,31.6,32.91,1018.12,1,0
2022-11-02 15:17:15,929,-115,1,-9,-2,5,34,-16,82,31.6,32.91,1018.12,1,0
2022-11-02 15:17:15,1130,1,-39,-6,-2,8,36,-13,79,31.6,32.91,1018.12,1,0
2022-11-02 15:17:15,1130,1,-39,-6,-2,8,36,-13,79,31.6,32.91,1018.12,1,0
2022-11-02 15:17:15,1130,1,-39,-6,-2,8,36,-13,79,31.6,32.91,1018.12,1,0
2022-11-02 15:17:15,942,-99,-33,15,-3,6,35,-16,79,31.6,32.91,1018.12,1,0
2022-11-02 15:17:15,942,-99,-33,15,-3,6,35,-16,79,31.6,32.91,1018.12,1,0
2022-11-02 15:17:15,942,-99,-33,15,-3,6,35,-16,79,31.6,32.91,1018.12,1,0
2022-11-02 15:17:15,993,-85,-42,12,2,5,36,-12,76,31.6,32.91,1018.12,1,0
2022-11-02 15:17:15,993,-85,-42,12,2,5,36,-12,76,31.6,32.91,1018.12,1,0
2022-11-02 15:17:15,993,-85,-42,12,2,5,36,-12,76,31.6,32.91,1018.12,1,0
2022-11-02 15:17:16,1001,-89,-70,16,3,-1,34,-16,75,31.6,32.91,1018.12,1,0
2022-11-02 15:17:16,1001,-89,-70,16,3,-1,34,-16,75,31.6,32.91,1018.12,1,0
2022-11-02 15:17:16,1001,-89,-70,16,3,-1,34,-16,75,31.6,32.91,1018.12,1,0
2022-11-02 15:17:16,970,-91,-93,8,1,-6,36,-10,76,31.6,32.91,1018.12,1,0
2022-11-02 15:17:16,970,-91,-93,8,1,-6,36,-10,76,31.6,32.91,1018.12,1,0
2022-11-02 15:17:16,970,-91,-93,8,1,-6,36,-10,76,31.6,32.91,1018.12,1,0
2022-11-02 15:17:16,1065,9,-124,8,0,-15,35,-14,79,31.6,32.91,1018.12,1,0
2022-11-02 15:17:16,1065,9,-124,8,0,-15,35,-14,79,31.6,32.91,1018.12,1,0
2022-11-02 15:17:16,1065,9,-124,8,0,-15,35,-14,79,31.6,32.91,1018.12,1,0
2022-11-02 15:17:16,1204,-87,3,13,-2,0,36,-11,77,31.6,32.91,1018.12,1,0
2022-11-02 15:17:16,1204,-87,3,13,-2,0,36,-11,77,31.6,32.91,1018.12,1,0
2022-11-02 15:17:16,1204,-87,3,13,-2,0,36,-11,77,31.6,32.91,1018.12,1,0
2022-11-02 15:17:16,915,42,-42,2,-7,-7,37,-10,74,31.6,32.91,1018.12,1,0
2022-11-02 15:17:16,915,42,-42,2,-7,-7,37,-10,74,31.6,32.91,1018.12,1,0
2022-11-02 15:17:16,915,42,-42,2,-7,-7,37,-10,74,31.6,32.91,1018.12,1,0
2022-11-02 15:17:16,995,-50,54,5,7,-6,36,-7,74,31.6,32.91,1018.12,1,0
2022-11-02 15:17:16,995,-50,54,5,7,-6,36,-7,74,31.6,32.91,1018.12,1,0
2022-11-02 15:17:16,995,-50,54,5,7,-6,36,-7,74,31.6,32.91,1018.12,1,0
2022-11-02 15:17:16,1005,37,72,-5,2,0,34,-6,81,31.6,32.91,1018.17,1,0
2022-11-02 15:17:16,1005,37,72,-5,2,0,34,-6,81,31.6,32.91,1018.17,1,0
2022-11-02 15:17:16,1005,37,72,-5,2,0,34,-6,81,31.6,32.91,1018.17,1,0
2022-11-02 15:17:16,1030,13,56,-21,0,-9,35,-7,78,31.6,32.91,1018.17,1,0
2022-11-02 15:17:16,1030,13,56,-21,0,-9,35,-7,78,31.6,32.91,1018.17,1,0
2022-11-02 15:17:16,1030,13,56,-21,0,-9,35,-7,78,31.6,32.91,1018.17,1,0
2022-11-02 15:17:16,993,81,-15,-35,1,-5,35,-6,76,31.6,32.91,1018.17,1,0
2022-11-02 15:17:16,993,81,-15,-35,1,-5,35,-6,76,31.6,32.91,1018.17,1,0
2022-11-02 15:17:16,993,81,-15,-35,1,-5,35,-6,76,31.6,32.91,1018.17,1,0
2022-11-02 15:17:16,1028,81,3,-39,3,2,37,-7,70,31.6,32.91,1018.17,1,0
2022-11-02 15:17:16,1028,81,3,-39,3,2,37,-7,70,31.6,32.91,1018.17,1,0
2022-11-02 15:17:16,1028,81,3,-39,3,2,37,-7,70,31.6,32.91,1018.17,1,0
2022-11-02 15:17:17,1030,64,-3,-43,1,6,36,-8,72,31.6,32.91,1018.17,1,0
2022-11-02 15:17:17,1030,64,-3,-43,1,6,36,-8,72,31.6,32.91,1018.17,1,0
2022-11-02 15:17:17,1030,64,-3,-43,1,6,36,-8,72,31.6,32.91,1018.17,1,0
2022-11-02 15:17:17,1030,87,3,-42,0,8,36,-5,77,31.6,32.91,1018.17,1,0
2022-11-02 15:17:17,1030,87,3,-42,0,8,36,-5,77,31.6,32.91,1018.17,1,0
2022-11-02 15:17:17,1030,87,3,-42,0,8,36,-5,77,31.6,32.91,1018.17,1,0
2022-11-02 15:17:17,1016,50,13,-59,-5,7,36,-13,68,31.6,32.91,1018.17,1,0
2022-11-02 15:17:17,1016,50,13,-59,-5,7,36,-13,68,31.6,32.91,1018.17,1,0
2022-11-02 15:17:17,1016,50,13,-59,-5,7,36,-13,68,31.6,32.91,1018.17,1,0
2022-11-02 15:17:17,1028,80,-27,-67,-10,10,36,-15,68,31.6,32.91,1018.17,1,0
2022-11-02 15:17:17,1028,80,-27,-67,-10,10,36,-15,68,31.6,32.91,1018.17,1,0
2022-11-02 15:17:17,1028,80,-27,-67,-10,10,36,-15,68,31.6,32.91,1018.17,1,0
2022-11-02 15:17:17,1081,-9,17,-57,7,4,34,-15,65,31.6,32.91,1018.17,1,0
2022-11-02 15:17:17,1081,-9,17,-57,7,4,34,-15,65,31.6,32.91,1018.17,1,0
2022-11-02 15:17:17,1081,-9,17,-57,7,4,34,-15,65,31.6,32.91,1018.17,1,0
2022-11-02 15:17:17,997,-19,-23,-53,0,13,35,-16,53,31.6,32.91,1018.17,1,0
2022-11-02 15:17:17,997,-19,-23,-53,0,13,35,-16,53,31.6,32.91,1018.17,1,0
2022-11-02 15:17:17,997,-19,-23,-53,0,13,35,-16,53,31.6,32.91,1018.17,1,0
2022-11-02 15:17:17,1024,-124,-21,-38,0,9,32,-17,55,31.6,32.92,1018.12,1,0
2022-11-02 15:17:17,1024,-124,-21,-38,0,9,32,-17,55,31.6,32.92,1018.12,1,0
2022-11-02 15:17:17,1024,-124,-21,-38,0,9,32,-17,55,31.6,32.92,1018.12,1,0
2022-11-02 15:17:17,995,-99,-29,-41,-2,10,34,-19,51,31.6,32.92,1018.12,1,0
2022-11-02 15:17:17,995,-99,-29,-41,-2,10,34,-19,51,31.6,32.92,1018.12,1,0
2022-11-02 15:17:17,995,-99,-29,-41,-2,10,34,-19,51,31.6,32.92,1018.12,1,0
2022-11-02 15:17:17,993,-165,-42,-49,1,15,33,-22,46,31.6,32.92,1018.12,1,0
2022-11-02 15:17:17,993,-165,-42,-49,1,15,33,-22,46,31.6,32.92,1018.12,1,0
2022-11-02 15:17:17,993,-165,-42,-49,1,15,33,-22,46,31.6,32.92,1018.12,1,0
2022-11-02 15:17:17,1018,-144,-76,-57,6,17,32,-20,48,31.6,32.92,1018.12,1,0
2022-11-02 15:17:17,1018,-144,-76,-57,6,17,32,-20,48,31.6,32.92,1018.12,1,0
2022-11-02 15:17:17,1018,-144,-76,-57,6,17,32,-20,48,31.6,32.92,1018.12,1,0
2022-11-02 15:17:18,983,-140,-66,-64,6,5,30,-19,48,31.6,32.92,1018.12,1,0
2022-11-02 15:17:18,983,-140,-66,-64,6,5,30,-19,48,31.6,32.92,1018.12,1,0
2022-11-02 15:17:18,983,-140,-66,-64,6,5,30,-19,48,31.6,32.92,1018.12,1,0
2022-11-02 15:17:18,985,-107,-109,-60,4,-4,30,-22,40,31.6,32.92,1018.12,1,0
2022-11-02 15:17:18,985,-107,-109,-60,4,-4,30,-22,40,31.6,32.92,1018.12,1,0
2022-11-02 15:17:18,985,-107,-109,-60,4,-4,30,-22,40,31.6,32.92,1018.12,1,0
2022-11-02 15:17:18,979,-158,-103,-58,10,-7,31,-20,42,31.6,32.92,1018.12,1,0
2022-11-02 15:17:18,979,-158,-103,-58,10,-7,31,-20,42,31.6,32.92,1018.12,1,0
2022-11-02 15:17:18,979,-158,-103,-58,10,-7,31,-20,42,31.6,32.92,1018.12,1,0
2022-11-02 15:17:18,1001,-138,-74,-56,14,-8,28,-20,35,31.6,32.92,1018.12,1,0
2022-11-02 15:17:18,1001,-138,-74,-56,14,-8,28,-20,35,31.6,32.92,1018.12,1,0
2022-11-02 15:17:18,1001,-138,-74,-56,14,-8,28,-20,35,31.6,32.92,1018.12,1,0
2022-11-02 15:17:18,1048,25,-93,-34,7,-14,31,-16,33,31.6,32.92,1018.12,1,0
2022-11-02 15:17:18,1048,25,-93,-34,7,-14,31,-16,33,31.6,32.92,1018.12,1,0
2022-11-02 15:17:18,1048,25,-93,-34,7,-14,31,-16,33,31.6,32.92,1018.12,1,0
2022-11-02 15:17:18,1097,-91,-23,-14,4,-5,33,-17,31,31.6,32.92,1018.12,1,0
2022-11-02 15:17:18,1097,-91,-23,-14,4,-5,33,-17,31,31.6,32.92,1018.12,1,0
2022-11-02 15:17:18,1097,-91,-23,-14,4,-5,33,-17,31,31.6,32.92,1018.12,1,0
2022-11-02 15:17:18,1001,-81,-3,-35,-1,0,34,-15,28,31.6,32.92,1018.1,1,0
2022-11-02 15:17:18,1001,-81,-3,-35,-1,0,34,-15,28,31.6,32.92,1018.1,1,0
2022-11-02 15:17:18,1001,-81,-3,-35,-1,0,34,-15,28,31.6,32.92,1018.1,1,0
2022-11-02 15:17:18,1030,23,-21,-30,0,-8,34,-15,30,31.6,32.92,1018.1,1,0
2022-11-02 15:17:18,1030,23,-21,-30,0,-8,34,-15,30,31.6,32.92,1018.1,1,0
2022-11-02 15:17:18,1030,23,-21,-30,0,-8,34,-15,30,31.6,32.92,1018.1,1,0
2022-11-02 15:17:18,1011,50,5,-53,9,-14,34,-13,28,31.6,32.92,1018.1,1,0
2022-11-02 15:17:18,1011,50,5,-53,9,-14,34,-13,28,31.6,32.92,1018.1,1,0
2022-11-02 15:17:18,1011,50,5,-53,9,-14,34,-13,28,31.6,32.92,1018.1,1,0
2022-11-02 15:17:18,1020,80,25,-56,6,-8,33,-7,32,31.6,32.92,1018.1,1,0
2022-11-02 15:17:18,1020,80,25,-56,6,-8,33,-7,32,31.6,32.92,1018.1,1,0
2022-11-02 15:17:18,1020,80,25,-56,6,-8,33,-7,32,31.6,32.92,1018.1,1,0
2022-11-02 15:17:19,1013,144,-5,-61,-4,-3,37,-8,26,31.6,32.92,1018.1,1,0
2022-11-02 15:17:19,1013,144,-5,-61,-4,-3,37,-8,26,31.6,32.92,1018.1,1,0
2022-11-02 15:17:19,1013,144,-5,-61,-4,-3,37,-8,26,31.6,32.92,1018.1,1,0
2022-11-02 15:17:19,1022,83,3,-60,2,-1,35,-7,21,31.6,32.92,1018.1,1,0
2022-11-02 15:17:19,1022,83,3,-60,2,-1,35,-7,21,31.6,32.92,1018.1,1,0
2022-11-02 15:17:19,1022,83,3,-60,2,-1,35,-7,21,31.6,32.92,1018.1,1,0
2022-11-02 15:17:19,1016,83,-9,-69,-6,3,36,-1,22,31.6,32.92,1018.1,1,0
2022-11-02 15:17:19,1016,83,-9,-69,-6,3,36,-1,22,31.6,32.92,1018.1,1,0
2022-11-02 15:17:19,1016,83,-9,-69,-6,3,36,-1,22,31.6,32.92,1018.1,1,0
2022-11-02 15:17:19,1013,105,-19,-61,-5,1,36,1,17,31.6,32.92,1018.1,1,0
2022-11-02 15:17:19,1013,105,-19,-61,-5,1,36,1,17,31.6,32.92,1018.1,1,0
2022-11-02 15:17:19,1013,105,-19,-61,-5,1,36,1,17,31.6,32.92,1018.1,1,0
2022-11-02 15:17:19,997,124,-29,-62,-6,5,34,5,16,31.6,32.92,1018.1,1,0
2022-11-02 15:17:19,997,124,-29,-62,-6,5,34,5,16,31.6,32.92,1018.1,1,0
2022-11-02 15:17:19,997,124,-29,-62,-6,5,34,5,16,31.6,32.92,1018.1,1,0
2022-11-02 15:17:19,1001,138,-85,-51,-4,10,34,7,14,31.6,32.92,1018.1,1,0
2022-11-02 15:17:19,1001,138,-85,-51,-4,10,34,7,14,31.6,32.92,1018.1,1,0
2022-11-02 15:17:19,1001,138,-85,-51,-4,10,34,7,14,31.6,32.92,1018.1,1,0
2022-11-02 15:17:19,983,74,-93,-42,-5,13,34,10,13,31.6,32.94,1018.15,1,0
2022-11-02 15:17:19,983,74,-93,-42,-5,13,34,10,13,31.6,32.94,1018.15,1,0
2022-11-02 15:17:19,983,74,-93,-42,-5,13,34,10,13,31.6,32.94,1018.15,1,0
2022-11-02 15:17:19,1075,64,-101,-29,0,6,36,9,15,31.6,32.94,1018.15,1,0
2022-11-02 15:17:19,1075,64,-101,-29,0,6,36,9,15,31.6,32.94,1018.15,1,0
2022-11-02 15:17:19,1075,64,-101,-29,0,6,36,9,15,31.6,32.94,1018.15,1,0
2022-11-02 15:17:19,1042,-107,1,-31,13,4,34,13,11,31.6,32.94,1018.15,1,0
2022-11-02 15:17:19,1042,-107,1,-31,13,4,34,13,11,31.6,32.94,1018.15,1,0
2022-11-02 15:17:19,1042,-107,1,-31,13,4,34,13,11,31.6,32.94,1018.15,1,0
2022-11-02 15:17:19,1020,27,-23,-33,9,5,34,15,14,31.6,32.94,1018.15,1,0
2022-11-02 15:17:19,1020,27,-23,-33,9,5,34,15,14,31.6,32.94,1018.15,1,0
2022-11-02 15:17:19,1020,27,-23,-33,9,5,34,15,14,31.6,32.94,1018.15,1,0
2022-11-02 15:17:19,995,-9,-19,-19,0,5,35,17,10,31.6,32.94,1018.15,1,0
2022-11-02 15:17:19,995,-9,-19,-19,0,5,35,17,10,31.6,32.94,1018.15,1,0
2022-11-02 15:17:19,995,-9,-19,-19,0,5,35,17,10,31.6,32.94,1018.15,1,0
2022-11-02 15:17:20,1015,-111,40,-17,-1,4,37,17,9,31.6,32.94,1018.15,1,0
2022-11-02 15:17:20,1015,-111,40,-17,-1,4,37,17,9,31.6,32.94,1018.15,1,0
2022-11-02 15:17:20,1015,-111,40,-17,-1,4,37,17,9,31.6,32.94,1018.15,1,0
2022-11-02 15:17:20,1050,0,-25,-18,-3,4,38,19,12,31.6,32.94,1018.15,1,0
2022-11-02 15:17:20,1050,0,-25,-18,-3,4,38,19,12,31.6,32.94,1018.15,1,0
2022-11-02 15:17:20,1050,0,-25,-18,-3,4,38,19,12,31.6,32.94,1018.15,1,0
2022-11-02 15:17:20,1036,-21,-78,5,-6,3,37,17,10,31.6,32.94,1018.15,1,0
2022-11-02 15:17:20,1036,-21,-78,5,-6,3,37,17,10,31.6,32.94,1018.15,1,0
2022-11-02 15:17:20,1036,-21,-78,5,-6,3,37,17,10,31.6,32.94,1018.15,1,0
2022-11-02 15:17:20,981,-62,-74,16,-4,2,36,18,12,31.6,32.94,1018.15,1,0
2022-11-02 15:17:20,981,-62,-74,16,-4,2,36,18,12,31.6,32.94,1018.15,1,0
2022-11-02 15:17:20,981,-62,-74,16,-4,2,36,18,12,31.6,32.94,1018.15,1,0
2022-11-02 15:17:20,977,-39,-97,27,1,-6,34,17,9,31.6,32.94,1018.15,1,0
2022-11-02 15:17:20,977,-39,-97,27,1,-6,34,17,9,31.6,32.94,1018.15,1,0
2022-11-02 15:17:20,977,-39,-97,27,1,-6,34,17,9,31.6,32.94,1018.15,1,0
2022-11-02 15:17:20,1001,-54,-103,20,8,-5,33,16,12,31.6,32.94,1018.11,1,0
2022-11-02 15:17:20,1001,-54,-103,20,8,-5,33,16,12,31.6,32.94,1018.11,1,0
2022-11-02 15:17:20,1001,-54,-103,20,8,-5,33,16,12,31.6,32.94,1018.11,1,0
2022-11-02 15:17:20,1022,-31,-95,21,7,-10,34,16,10,31.6,32.94,1018.11,1,0
2022-11-02 15:17:20,1022,-31,-95,21,7,-10,34,16,10,31.6,32.94,1018.11,1,0
2022-11-02 15:17:20,1022,-31,-95,21,7,-10,34,16,10,31.6,32.94,1018.11,1,0
2022-11-02 15:17:20,1124,72,-80,33,-6,-12,36,16,11,31.6,32.94,1018.11,1,0
2022-11-02 15:17:20,1124,72,-80,33,-6,-12,36,16,11,31.6,32.94,1018.11,1,0
2022-11-02 15:17:20,1124,72,-80,33,-6,-12,36,16,11,31.6,32.94,1018.11,1,0
2022-11-02 15:17:20,970,-119,-9,25,-13,4,34,13,9,31.6,32.94,1018.11,1,0
2022-11-02 15:17:20,970,-119,-9,25,-13,4,34,13,9,31.6,32.94,1018.11,1,0
2022-11-02 15:17:20,970,-119,-9,25,-13,4,34,13,9,31.6,32.94,1018.11,1,0
2022-11-02 15:17:20,1011,-40,52,21,7,-6,34,11,7,31.6,32.94,1018.11,1,0
2022-11-02 15:17:20,1011,-40,52,21,7,-6,34,11,7,31.6,32.94,1018.11,1,0
2022-11-02 15:17:20,1011,-40,52,21,7,-6,34,11,7,31.6,32.94,1018.11,1,0
2022-11-02 15:17:21,999,60,44,12,6,-5,33,9,5,31.6,32.94,1018.11,1,0
2022-11-02 15:17:21,999,60,44,12,6,-5,33,9,5,31.6,32.94,1018.11,1,0
2022-11-02 15:17:21,999,60,44,12,6,-5,33,9,5,31.6,32.94,1018.11,1,0
2022-11-02 15:17:21,1032,83,60,9,5,-5,35,8,6,31.6,32.94,1018.11,1,0
2022-11-02 15:17:21,1032,83,60,9,5,-5,35,8,6,31.6,32.94,1018.11,1,0
2022-11-02 15:17:21,1032,83,60,9,5,-5,35,8,6,31.6,32.94,1018.11,1,0
2022-11-02 15:17:21,1005,138,21,3,7,-9,34,10,4,31.6,32.94,1018.11,1,0
2022-11-02 15:17:21,1005,138,21,3,7,-9,34,10,4,31.6,32.94,1018.11,1,0
2022-11-02 15:17:21,1005,138,21,3,7,-9,34,10,4,31.6,32.94,1018.11,1,0
2022-11-02 15:17:21,1018,124,13,9,4,0,34,10,4,31.6,32.94,1018.11,1,0
2022-11-02 15:17:21,1018,124,13,9,4,0,34,10,4,31.6,32.94,1018.11,1,0
2022-11-02 15:17:21,1018,124,13,9,4,0,34,10,4,31.6,32.94,1018.11,1,0
2022-11-02 15:17:21,999,134,21,15,3,0,35,7,7,31.6,32.94,1018.11,1,0
2022-11-02 15:17:21,999,134,21,15,3,0,35,7,7,31.6,32.94,1018.11,1,0
2022-11-02 15:17:21,999,134,21,15,3,0,35,7,7,31.6,32.94,1018.11,1,0
2022-11-02 15:17:21,1020,121,37,18,0,4,33,10,3,31.6,32.95,1018.13,1,0
2022-11-02 15:17:21,1020,121,37,18,0,4,33,10,3,31.6,32.95,1018.13,1,0
2022-11-02 15:17:21,1020,121,37,18,0,4,33,10,3,31.6,32.95,1018.13,1,0
2022-11-02 15:17:21,1013,99,9,7,-4,6,35,7,4,31.6,32.95,1018.13,1,0
2022-11-02 15:17:21,1013,99,9,7,-4,6,35,7,4,31.6,32.95,1018.13,1,0
2022-11-02 15:17:21,1013,99,9,7,-4,6,35,7,4,31.6,32.95,1018.13,1,0
2022-11-02 15:17:21,1001,140,-15,3,-6,5,37,5,8,31.6,32.95,1018.13,1,0
2022-11-02 15:17:21,1001,140,-15,3,-6,5,37,5,8,31.6,32.95,1018.13,1,0
2022-11-02 15:17:21,1001,140,-15,3,-6,5,37,5,8,31.6,32.95,1018.13,1,0
2022-11-02 15:17:21,1057,13,-15,-12,0,-12,35,4,5,31.6,32.95,1018.13,1,0
2022-11-02 15:17:21,1057,13,-15,-12,0,-12,35,4,5,31.6,32.95,1018.13,1,0
2022-11-02 15:17:21,1057,13,-15,-12,0,-12,35,4,5,31.6,32.95,1018.13,1,0
2022-11-02 15:17:21,1083,46,13,-6,0,-7,34,3,6,31.6,32.95,1018.13,1,0
2022-11-02 15:17:21,1083,46,13,-6,0,-7,34,3,6,31.6,32.95,1018.13,1,0
2022-11-02 15:17:21,1083,46,13,-6,0,-7,34,3,6,31.6,32.95,1018.13,1,0
2022-11-02 15:17:22,1003,54,-17,6,-7,11,35,5,4,31.6,32.95,1018.13,1,0
2022-11-02 15:17:22,1003,54,-17,6,-7,11,35,5,4,31.6,32.95,1018.13,1,0
2022-11-02 15:17:22,1003,54,-17,6,-7,11,35,5,4,31.6,32.95,1018.13,1,0
2022-11-02 15:17:22,1024,9,-23,22,-10,10,34,7,2,31.6,32.95,1018.13,1,0
2022-11-02 15:17:22,1024,9,-23,22,-10,10,34,7,2,31.6,32.95,1018.13,1,0
2022-11-02 15:17:22,1024,9,-23,22,-10,10,34,7,2,31.6,32.95,1018.13,1,0
2022-11-02 15:17:22,1005,-113,-21,21,-7,8,34,5,3,31.6,32.95,1018.13,1,0
2022-11-02 15:17:22,1005,-113,-21,21,-7,8,34,5,3,31.6,32.95,1018.13,1,0
2022-11-02 15:17:22,1005,-113,-21,21,-7,8,34,5,3,31.6,32.95,1018.13,1,0
2022-11-02 15:17:22,1022,-13,-105,18,-7,6,32,2,0,31.6,32.95,1018.13,1,0
2022-11-02 15:17:22,1022,-13,-105,18,-7,6,32,2,0,31.6,32.95,1018.13,1,0
2022-11-02 15:17:22,1022,-13,-105,18,-7,6,32,2,0,31.6,32.95,1018.13,1,0
2022-11-02 15:17:22,1007,-40,-85,33,-4,5,33,1,3,31.6,32.95,1018.13,1,0
2022-11-02 15:17:22,1007,-40,-85,33,-4,5,33,1,3,31.6,32.95,1018.13,1,0
2022-11-02 15:17:22,1007,-40,-85,33,-4,5,33,1,3,31.6,32.95,1018.13,1,0
2022-11-02 15:17:22,985,-70,-105,26,0,4,31,-3,3,31.6,32.96,1018.13,1,0
2022-11-02 15:17:22,985,-70,-105,26,0,4,31,-3,3,31.6,32.96,1018.13,1,0
2022-11-02 15:17:22,985,-70,-105,26,0,4,31,-3,3,31.6,32.96,1018.13,1,0
2022-11-02 15:17:22,979,-25,-124,24,3,-2,33,-5,-1,31.6,32.96,1018.13,1,0
2022-11-02 15:17:22,979,-25,-124,24,3,-2,33,-5,-1,31.6,32.96,1018.13,1,0
2022-11-02 15:17:22,979,-25,-124,24,3,-2,33,-5,-1,31.6,32.96,1018.13,1,0
2022-11-02 15:17:22,985,-40,-140,20,3,-6,31,-7,1,31.6,32.96,1018.13,1,0
2022-11-02 15:17:22,985,-40,-140,20,3,-6,31,-7,1,31.6,32.96,1018.13,1,0
2022-11-02 15:17:22,985,-40,-140,20,3,-6,31,-7,1,31.6,32.96,1018.13,1,0
2022-11-02 15:17:22,987,62,-154,21,3,-13,31,-10,6,31.6,32.96,1018.13,1,0
2022-11-02 15:17:22,987,62,-154,21,3,-13,31,-10,6,31.6,32.96,1018.13,1,0
2022-11-02 15:17:22,987,62,-154,21,3,-13,31,-10,6,31.6,32.96,1018.13,1,0
2022-11-02 15:17:22,1198,-9,-58,45,3,-5,33,-11,3,31.6,32.96,1018.13,1,0
2022-11-02 15:17:22,1198,-9,-58,45,3,-5,33,-11,3,31.6,32.96,1018.13,1,0
2022-11-02 15:17:22,1198,-9,-58,45,3,-5,33,-11,3,31.6,32.96,1018.13,1,0
2022-11-02 15:17:23,911,-83,-46,18,-6,-3,30,-13,2,31.6,32.96,1018.13,1,0
2022-11-02 15:17:23,911,-83,-46,18,-6,-3,30,-13,2,31.6,32.96,1018.13,1,0
2022-11-02 15:17:23,911,-83,-46,18,-6,-3,30,-13,2,31.6,32.96,1018.13,1,0
2022-11-02 15:17:23,1026,-70,68,15,13,-3,32,-16,7,31.6,32.96,1018.13,1,0
2022-11-02 15:17:23,1026,-70,68,15,13,-3,32,-16,7,31.6,32.96,1018.13,1,0
2022-11-02 15:17:23,1026,-70,68,15,13,-3,32,-16,7,31.6,32.96,1018.13,1,0
2022-11-02 15:17:23,972,72,52,16,0,-7,33,-17,7,31.6,32.96,1018.13,1,0
2022-11-02 15:17:23,972,72,52,16,0,-7,33,-17,7,31.6,32.96,1018.13,1,0
2022-11-02 15:17:23,972,72,52,16,0,-7,33,-17,7,31.6,32.96,1018.13,1,0
2022-11-02 15:17:23,1059,-11,25,6,1,-14,31,-16,12,31.6,32.96,1018.13,1,0
2022-11-02 15:17:23,1059,-11,25,6,1,-14,31,-16,12,31.6,32.96,1018.13,1,0
2022-11-02 15:17:23,1059,-11,25,6,1,-14,31,-16,12,31.6,32.96,1018.13,1,0
2022-11-02 15:17:23,977,158,-19,0,6,-10,32,-16,10,31.6,32.96,1018.13,1,0
2022-11-02 15:17:23,977,158,-19,0,6,-10,32,-16,10,31.6,32.96,1018.13,1,0
2022-11-02 15:17:23,977,158,-19,0,6,-10,32,-16,10,31.6,32.96,1018.13,1,0
2022-11-02 15:17:23,1009,126,-7,5,8,0,32,-15,9,31.6,32.96,1018.13,1,0
2022-11-02 15:17:23,1009,126,-7,5,8,0,32,-15,9,31.6,32.96,1018.13,1,0
2022-11-02 15:17:23,1009,126,-7,5,8,0,32,-15,9,31.6,32.96,1018.13,1,0
2022-11-02 15:17:23,1026,130,1,1,4,5,33,-13,7,31.6,32.96,1018.13,1,0
2022-11-02 15:17:23,1026,130,1,1,4,5,33,-13,7,31.6,32.96,1018.13,1,0
2022-11-02 15:17:23,1026,130,1,1,4,5,33,-13,7,31.6,32.96,1018.13,1,0
2022-11-02 15:17:23,1009,148,9,4,-8,7,33,-18,9,31.6,32.96,1018.13,1,0
2022-11-02 15:17:23,1009,148,9,4,-8,7,33,-18,9,31.6,32.96,1018.13,1,0
2022-11-02 15:17:23,1009,148,9,4,-8,7,33,-18,9,31.6,32.96,1018.13,1,0
2022-11-02 15:17:23,991,76,-19,4,-6,10,32,-18,13,31.6,32.96,1018.13,1,0
2022-11-02 15:17:23,991,76,-19,4,-6,10,32,-18,13,31.6,32.96,1018.13,1,0
2022-11-02 15:17:23,991,76,-19,4,-6,10,32,-18,13,31.6,32.96,1018.13,1,0
2022-11-02 15:17:23,1130,66,-27,-23,0,1,30,-18,10,31.6,32.96,1018.13,1,0
2022-11-02 15:17:23,1130,66,-27,-23,0,1,30,-18,10,31.6,32.96,1018.13,1,0
2022-11-02 15:17:23,1130,66,-27,-23,0,1,30,-18,10,31.6,32.96,1018.13,1,0
2022-11-02 15:17:24,1091,11,107,6,12,0,29,-19,7,31.6,32.96,1018.13,1,0
2022-11-02 15:17:24,1091,11,107,6,12,0,29,-19,7,31.6,32.96,1018.13,1,0
2022-11-02 15:17:24,1091,11,107,6,12,0,29,-19,7,31.6,32.96,1018.13,1,0
2022-11-02 15:17:24,995,40,-19,-7,-10,10,32,-20,11,31.6,32.96,1018.13,1,0
2022-11-02 15:17:24,995,40,-19,-7,-10,10,32,-20,11,31.6,32.96,1018.13,1,0
2022-11-02 15:17:24,995,40,-19,-7,-10,10,32,-20,11,31.6,32.96,1018.13,1,0
2022-11-02 15:17:24,1016,-130,-15,11,-6,6,32,-17,6,31.6,32.96,1018.13,1,0
2022-11-02 15:17:24,1016,-130,-15,11,-6,6,32,-17,6,31.6,32.96,1018.13,1,0
2022-11-02 15:17:24,1016,-130,-15,11,-6,6,32,-17,6,31.6,32.96,1018.13,1,0
2022-11-02 15:17:24,1005,-7,-74,16,-9,8,31,-17,8,31.6,32.96,1018.13,1,0
2022-11-02 15:17:24,1005,-7,-74,16,-9,8,31,-17,8,31.6,32.96,1018.13,1,0
2022-11-02 15:17:24,1005,-7,-74,16,-9,8,31,-17,8,31.6,32.96,1018.13,1,0
2022-11-02 15:17:24,1005,-115,-54,29,-5,10,31,-18,6,31.6,32.96,1018.13,1,0
2022-11-02 15:17:24,1005,-115,-54,29,-5,10,31,-18,6,31.6,32.96,1018.13,1,0
2022-11-02 15:17:24,1005,-115,-54,29,-5,10,31,-18,6,31.6,32.96,1018.13,1,0
2022-11-02 15:17:24,985,-91,-80,24,-5,1,27,-24,9,31.6,32.98,1018.12,1,0
2022-11-02 15:17:24,985,-91,-80,24,-5,1,27,-24,9,31.6,32.98,1018.12,1,0
2022-11-02 15:17:24,985,-91,-80,24,-5,1,27,-24,9,31.6,32.98,1018.12,1,0
2022-11-02 15:17:24,989,-48,-103,31,-5,-10,27,-26,11,31.6,32.98,1018.12,1,0
2022-11-02 15:17:24,989,-48,-103,31,-5,-10,27,-26,11,31.6,32.98,1018.12,1,0
2022-11-02 15:17:24,989,-48,-103,31,-5,-10,27,-26,11,31.6,32.98,1018.12,1,0
2022-11-02 15:17:24,964,-17,-124,30,-1,-9,28,-26,14,31.6,32.98,1018.12,1,0
2022-11-02 15:17:24,964,-17,-124,30,-1,-9,28,-26,14,31.6,32.98,1018.12,1,0
2022-11-02 15:17:24,964,-17,-124,30,-1,-9,28,-26,14,31.6,32.98,1018.12,1,0
2022-11-02 15:17:24,977,-37,-136,26,8,-9,27,-30,15,31.6,32.98,1018.12,1,0
2022-11-02 15:17:24,977,-37,-136,26,8,-9,27,-30,15,31.6,32.98,1018.12,1,0
2022-11-02 15:17:24,977,-37,-136,26,8,-9,27,-30,15,31.6,32.98,1018.12,1,0
2022-11-02 15:17:24,1104,124,-152,41,0,-12,28,-27,20,31.6,32.98,1018.12,1,0
2022-11-02 15:17:24,1104,124,-152,41,0,-12,28,-27,20,31.6,32.98,1018.12,1,0
2022-11-02 15:17:24,1104,124,-152,41,0,-12,28,-27,20,31.6,32.98,1018.12,1,0
2022-11-02 15:17:25,1061,-175,-31,25,1,5,31,-31,19,31.6,32.98,1018.12,1,0
2022-11-02 15:17:25,1061,-175,-31,25,1,5,31,-31,19,31.6,32.98,1018.12,1,0
2022-11-02 15:17:25,1061,-175,-31,25,1,5,31,-31,19,31.6,32.98,1018.12,1,0
2022-11-02 15:17:25,970,-7,21,30,12,-1,29,-30,19,31.6,32.98,1018.12,1,0
2022-11-02 15:17:25,970,-7,21,30,12,-1,29,-30,19,31.6,32.98,1018.12,1,0
2022-11-02 15:17:25,970,-7,21,30,12,-1,29,-30,19,31.6,32.98,1018.12,1,0
2022-11-02 15:17:25,1005,-60,5,9,4,-2,29,-33,24,31.6,32.98,1018.12,1,0
2022-11-02 15:17:25,1005,-60,5,9,4,-2,29,-33,24,31.6,32.98,1018.12,1,0
2022-11-02 15:17:25,1005,-60,5,9,4,-2,29,-33,24,31.6,32.98,1018.12,1,0
2022-11-02 15:17:25,991,48,25,10,3,-2,30,-34,22,31.6,32.98,1018.12,1,0
2022-11-02 15:17:25,991,48,25,10,3,-2,30,-34,22,31.6,32.98,1018.12,1,0
2022-11-02 15:17:25,991,48,25,10,3,-2,30,-34,22,31.6,32.98,1018.12,1,0
2022-11-02 15:17:25,1046,-31,37,-1,5,-12,31,-35,24,31.6,32.98,1018.12,1,0
2022-11-02 15:17:25,1046,-31,37,-1,5,-12,31,-35,24,31.6,32.98,1018.12,1,0
2022-11-02 15:17:25,1046,-31,37,-1,5,-12,31,-35,24,31.6,32.98,1018.12,1,0
2022-11-02 15:17:25,989,115,-21,-22,0,-7,32,-33,25,31.6,32.98,1018.06,1,0
2022-11-02 15:17:25,989,115,-21,-22,0,-7,32,-33,25,31.6,32.98,1018.06,1,0
2022-11-02 15:17:25,989,115,-21,-22,0,-7,32,-33,25,31.6,32.98,1018.06,1,0
2022-11-02 15:17:25,1022,93,3,-15,3,-1,32,-33,31,31.6,32.98,1018.06,1,0
2022-11-02 15:17:25,1022,93,3,-15,3,-1,32,-33,31,31.6,32.98,1018.06,1,0
2022-11-02 15:17:25,1022,93,3,-15,3,-1,32,-33,31,31.6,32.98,1018.06,1,0
2022-11-02 15:17:25,1003,136,-17,-24,-1,6,33,-33,20,31.6,32.98,1018.06,1,0
2022-11-02 15:17:25,1003,136,-17,-24,-1,6,33,-33,20,31.6,32.98,1018.06,1,0
2022-11-02 15:17:25,1003,136,-17,-24,-1,6,33,-33,20,31.6,32.98,1018.06,1,0
2022-11-02 15:17:25,1005,83,13,-26,-6,12,33,-32,22,31.6,32.98,1018.06,1,0
2022-11-02 15:17:25,1005,83,13,-26,-6,12,33,-32,22,31.6,32.98,1018.06,1,0
2022-11-02 15:17:25,1005,83,13,-26,-6,12,33,-32,22,31.6,32.98,1018.06,1,0
2022-11-02 15:17:25,1011,140,-89,-39,-11,2,33,-33,25,31.6,32.98,1018.06,1,0
2022-11-02 15:17:25,1011,140,-89,-39,-11,2,33,-33,25,31.6,32.98,1018.06,1,0
2022-11-02 15:17:25,1011,140,-89,-39,-11,2,33,-33,25,31.6,32.98,1018.06,1,0
2022-11-02 15:17:26,1186,156,60,1,16,-9,32,-32,16,31.6,32.98,1018.06,1,0
2022-11-02 15:17:26,1186,156,60,1,16,-9,32,-32,16,31.6,32.98,1018.06,1,0
2022-11-02 15:17:26,1186,156,60,1,16,-9,32,-32,16,31.6,32.98,1018.06,1,0
2022-11-02 15:17:26,948,-97,-3,-23,-16,8,33,-28,13,31.6,32.98,1018.06,1,0
2022-11-02 15:17:26,948,-97,-3,-23,-16,8,33,-28,13,31.6,32.98,1018.06,1,0
2022-11-02 15:17:26,948,-97,-3,-23,-16,8,33,-28,13,31.6,32.98,1018.06,1,0
2022-11-02 15:17:26,983,-160,-52,-20,-7,5,34,-27,13,31.6,32.98,1018.06,1,0
2022-11-02 15:17:26,983,-160,-52,-20,-7,5,34,-27,13,31.6,32.98,1018.06,1,0
2022-11-02 15:17:26,983,-160,-52,-20,-7,5,34,-27,13,31.6,32.98,1018.06,1,0
2022-11-02 15:17:26,1016,39,-107,-5,-9,7,32,-29,13,31.6,32.98,1018.06,1,0
2022-11-02 15:17:26,1016,39,-107,-5,-9,7,32,-29,13,31.6,32.98,1018.06,1,0
2022-11-02 15:17:26,1016,39,-107,-5,-9,7,32,-29,13,31.6,32.98,1018.06,1,0
2022-11-02 15:17:26,983,-121,-85,-1,-7,12,33,-27,8,31.6,32.98,1018.06,1,0
2022-11-02 15:17:26,983,-121,-85,-1,-7,12,33,-27,8,31.6,32.98,1018.06,1,0
2022-11-02 15:17:26,983,-121,-85,-1,-7,12,33,-27,8,31.6,32.98,1018.06,1,0
2022-11-02 15:17:26,962,-27,-140,0,-4,2,28,-27,11,31.6,32.99,1018.13,1,0
2022-11-02 15:17:26,962,-27,-140,0,-4,2,28,-27,11,31.6,32.99,1018.13,1,0
2022-11-02 15:17:26,962,-27,-140,0,-4,2,28,-27,11,31.6,32.99,1018.13,1,0
2022-11-02 15:17:26,960,-50,-162,4,3,-5,31,-28,10,31.6,32.99,1018.13,1,0
2022-11-02 15:17:26,960,-50,-162,4,3,-5,31,-28,10,31.6,32.99,1018.13,1,0
2022-11-02 15:17:26,960,-50,-162,4,3,-5,31,-28,10,31.6,32.99,1018.13,1,0
2022-11-02 15:17:26,985,64,-189,13,6,-10,31,-27,10,31.6,32.99,1018.13,1,0
2022-11-02 15:17:26,985,64,-189,13,6,-10,31,-27,10,31.6,32.99,1018.13,1,0
2022-11-02 15:17:26,985,64,-189,13,6,-10,31,-27,10,31.6,32.99,1018.13,1,0
2022-11-02 15:17:26,1087,83,-204,46,8,-10,31,-27,13,31.6,32.99,1018.13,1,0
2022-11-02 15:17:26,1087,83,-204,46,8,-10,31,-27,13,31.6,32.99,1018.13,1,0
2022-11-02 15:17:26,1087,83,-204,46,8,-10,31,-27,13,31.6,32.99,1018.13,1,0
2022-11-02 15:17:26,1253,-175,23,33,2,8,32,-28,10,31.6,32.99,1018.13,1,0
2022-11-02 15:17:26,1253,-175,23,33,2,8,32,-28,10,31.6,32.99,1018.13,1,0
2022-11-02 15:17:26,1253,-175,23,33,2,8,32,-28,10,31.6,32.99,1018.13,1,0
2022-11-02 15:17:27,901,-27,-31,-7,-2,-10,33,-31,14,31.6,32.99,1018.13,1,0
2022-11-02 15:17:27,901,-27,-31,-7,-2,-10,33,-31,14,31.6,32.99,1018.13,1,0
2022-11-02 15:17:27,901,-27,-31,-7,-2,-10,33,-31,14,31.6,32.99,1018.13,1,0
2022-11-02 15:17:27,1003,-99,17,-20,6,-10,33,-33,15,31.6,32.99,1018.13,1,0
2022-11-02 15:17:27,1003,-99,17,-20,6,-10,33,-33,15,31.6,32.99,1018.13,1,0
2022-11-02 15:17:27,1003,-99,17,-20,6,-10,33,-33,15,31.6,32.99,1018.13,1,0
2022-11-02 15:17:27,1071,-27,1,-33,2,0,33,-27,16,31.6,32.99,1018.13,1,0
2022-11-02 15:17:27,1071,-27,1,-33,2,0,33,-27,16,31.6,32.99,1018.13,1,0
2022-11-02 15:17:27,1071,-27,1,-33,2,0,33,-27,16,31.6,32.99,1018.13,1,0
2022-11-02 15:17:27,989,39,-9,-69,-2,-14,34,-25,16,31.6,32.99,1018.13,1,0
2022-11-02 15:17:27,989,39,-9,-69,-2,-14,34,-25,16,31.6,32.99,1018.13,1,0
2022-11-02 15:17:27,989,39,-9,-69,-2,-14,34,-25,16,31.6,32.99,1018.13,1,0
2022-11-02 15:17:27,1030,121,-23,-67,-4,0,33,-23,10,31.6,32.99,1018.13,1,0
2022-11-02 15:17:27,1030,121,-23,-67,-4,0,33,-23,10,31.6,32.99,1018.13,1,0
2022-11-02 15:17:27,1030,121,-23,-67,-4,0,33,-23,10,31.6,32.99,1018.13,1,0
2022-11-02 15:17:27,1013,74,-39,-64,-3,9,34,-15,6,31.6,33,1018.15,1,0
2022-11-02 15:17:27,1013,74,-39,-64,-3,9,34,-15,6,31.6,33,1018.15,1,0
2022-11-02 15:17:27,1013,74,-39,-64,-3,9,34,-15,6,31.6,33,1018.15,1,0
2022-11-02 15:17:27,1003,181,-64,-56,3,15,30,-10,4,31.6,33,1018.15,1,0
2022-11-02 15:17:27,1003,181,-64,-56,3,15,30,-10,4,31.6,33,1018.15,1,0
2022-11-02 15:17:27,1003,181,-64,-56,3,15,30,-10,4,31.6,33,1018.15,1,0
2022-11-02 15:17:27,1022,50,-54,-39,-3,13,31,-5,1,31.6,33,1018.15,1,0
2022-11-02 15:17:27,1022,50,-54,-39,-3,13,31,-5,1,31.6,33,1018.15,1,0
2022-11-02 15:17:27,1022,50,-54,-39,-3,13,31,-5,1,31.6,33,1018.15,1,0
2022-11-02 15:17:27,993,66,-140,-60,-6,15,29,-5,-2,31.6,33,1018.15,1,0
2022-11-02 15:17:27,993,66,-140,-60,-6,15,29,-5,-2,31.6,33,1018.15,1,0
2022-11-02 15:17:27,993,66,-140,-60,-6,15,29,-5,-2,31.6,33,1018.15,1,0
2022-11-02 15:17:27,1143,74,-27,-48,21,2,27,0,1,31.6,33,1018.15,1,0
2022-11-02 15:17:27,1143,74,-27,-48,21,2,27,0,1,31.6,33,1018.15,1,0
2022-11-02 15:17:27,1143,74,-27,-48,21,2,27,0,1,31.6,33,1018.15,1,0
2022-11-02 15:17:28,976,-44,-17,-48,2,8,31,5,-1,31.6,33,1018.15,1,0
2022-11-02 15:17:28,976,-44,-17,-48,2,8,31,5,-1,31.6,33,1018.15,1,0
2022-11-02 15:17:28,976,-44,-17,-48,2,8,31,5,-1,31.6,33,1018.15,1,0
2022-11-02 15:17:28,1013,-85,-19,-36,0,4,31,7,4,31.6,33,1018.15,1,0
2022-11-02 15:17:28,1013,-85,-19,-36,0,4,31,7,4,31.6,33,1018.15,1,0
2022-11-02 15:17:28,1013,-85,-19,-36,0,4,31,7,4,31.6,33,1018.15,1,0
2022-11-02 15:17:28,958,-27,-58,-26,-1,2,28,11,0,31.6,33,1018.15,1,0
2022-11-02 15:17:28,958,-27,-58,-26,-1,2,28,11,0,31.6,33,1018.15,1,0
2022-11-02 15:17:28,958,-27,-58,-26,-1,2,28,11,0,31.6,33,1018.15,1,0
2022-11-02 15:17:28,1063,-46,-54,2,-4,1,30,14,-1,31.6,33,1018.15,1,0
2022-11-02 15:17:28,1063,-46,-54,2,-4,1,30,14,-1,31.6,33,1018.15,1,0
2022-11-02 15:17:28,1063,-46,-54,2,-4,1,30,14,-1,31.6,33,1018.15,1,0
2022-11-02 15:17:28,995,-89,-48,10,-7,5,30,14,4,31.6,33,1018.15,1,0
2022-11-02 15:17:28,995,-89,-48,10,-7,5,30,14,4,31.6,33,1018.15,1,0
2022-11-02 15:17:28,995,-89,-48,10,-7,5,30,14,4,31.6,33,1018.15,1,0
2022-11-02 15:17:28,960,-99,-81,-1,0,5,27,13,1,31.6,33,1018.15,1,0
2022-11-02 15:17:28,960,-99,-81,-1,0,5,27,13,1,31.6,33,1018.15,1,0
2022-11-02 15:17:28,960,-99,-81,-1,0,5,27,13,1,31.6,33,1018.15,1,0
2022-11-02 15:17:28,976,-23,-111,3,6,-4,29,11,-1,31.6,33,1018.15,1,0
2022-11-02 15:17:28,976,-23,-111,3,6,-4,29,11,-1,31.6,33,1018.15,1,0
2022-11-02 15:17:28,976,-23,-111,3,6,-4,29,11,-1,31.6,33,1018.15,1,0
2022-11-02 15:17:28,1016,-35,-95,8,9,-4,28,14,0,31.6,33,1018.15,1,0
2022-11-02 15:17:28,1016,-35,-95,8,9,-4,28,14,0,31.6,33,1018.15,1,0
2022-11-02 15:17:28,1016,-35,-95,8,9,-4,28,14,0,31.6,33,1018.15,1,0
2022-11-02 15:17:28,1048,83,-115,11,4,-6,29,12,2,31.6,33,1018.15,1,0
2022-11-02 15:17:28,1048,83,-115,11,4,-6,29,12,2,31.6,33,1018.15,1,0
2022-11-02 15:17:28,1048,83,-115,11,4,-6,29,12,2,31.6,33,1018.15,1,0
2022-11-02 15:17:28,1071,113,-148,54,-5,-15,28,14,0,31.6,33,1018.15,1,0
2022-11-02 15:17:28,1071,113,-148,54,-5,-15,28,14,0,31.6,33,1018.15,1,0
2022-11-02 15:17:28,1071,113,-148,54,-5,-15,28,14,0,31.6,33,1018.15,1,0
2022-11-02 15:17:29,1057,-189,25,26,2,9,26,11,4,31.6,33,1018.15,1,0
2022-11-02 15:17:29,1057,-189,25,26,2,9,26,11,4,31.6,33,1018.15,1,0
2022-11-02 15:17:29,1057,-189,25,26,2,9,26,11,4,31.6,33,1018.15,1,0
2022-11-02 15:17:29,1026,-122,-15,26,-6,-4,26,9,2,31.6,33,1018.15,1,0
2022-11-02 15:17:29,1026,-122,-15,26,-6,-4,26,9,2,31.6,33,1018.15,1,0
2022-11-02 15:17:29,1026,-122,-15,26,-6,-4,26,9,2,31.6,33,1018.15,1,0
2022-11-02 15:17:29,972,-21,33,-3,5,-10,25,2,-4,31.6,33,1018.15,1,0
2022-11-02 15:17:29,972,-21,33,-3,5,-10,25,2,-4,31.6,33,1018.15,1,0
2022-11-02 15:17:29,972,-21,33,-3,5,-10,25,2,-4,31.6,33,1018.15,1,0
2022-11-02 15:17:29,1011,31,-3,-8,0,-6,25,2,1,31.6,33,1018.15,1,0
2022-11-02 15:17:29,1011,31,-3,-8,0,-6,25,2,1,31.6,33,1018.15,1,0
2022-11-02 15:17:29,1011,31,-3,-8,0,-6,25,2,1,31.6,33,1018.15,1,0
2022-11-02 15:17:29,1059,83,-13,-12,5,-7,26,1,-2,31.6,33,1018.15,1,0
2022-11-02 15:17:29,1059,83,-13,-12,5,-7,26,1,-2,31.6,33,1018.15,1,0
2022-11-02 15:17:29,1059,83,-13,-12,5,-7,26,1,-2,31.6,33,1018.15,1,0
2022-11-02 15:17:29,993,64,-13,-16,4,-7,23,0,-2,31.6,33.01,1018.13,1,0
2022-11-02 15:17:29,993,64,-13,-16,4,-7,23,0,-2,31.6,33.01,1018.13,1,0
2022-11-02 15:17:29,993,64,-13,-16,4,-7,23,0,-2,31.6,33.01,1018.13,1,0
2022-11-02 15:17:29,1001,122,-29,-7,7,0,26,9,0,31.6,33.01,1018.13,1,0
2022-11-02 15:17:29,1001,122,-29,-7,7,0,26,9,0,31.6,33.01,1018.13,1,0
2022-11-02 15:17:29,1001,122,-29,-7,7,0,26,9,0,31.6,33.01,1018.13,1,0
2022-11-02 15:17:29,1038,80,-19,-13,0,5,27,10,0,31.6,33.01,1018.13,1,0
2022-11-02 15:17:29,1038,80,-19,-13,0,5,27,10,0,31.6,33.01,1018.13,1,0
2022-11-02 15:17:29,1038,80,-19,-13,0,5,27,10,0,31.6,33.01,1018.13,1,0
2022-11-02 15:17:29,1005,107,-21,-20,-2,5,28,9,-1,31.6,33.01,1018.13,1,0
2022-11-02 15:17:29,1005,107,-21,-20,-2,5,28,9,-1,31.6,33.01,1018.13,1,0
2022-11-02 15:17:29,1005,107,-21,-20,-2,5,28,9,-1,31.6,33.01,1018.13,1,0
2022-11-02 15:17:29,1046,70,-37,-31,2,10,26,9,-2,31.6,33.01,1018.13,1,0
2022-11-02 15:17:29,1046,70,-37,-31,2,10,26,9,-2,31.6,33.01,1018.13,1,0
2022-11-02 15:17:29,1046,70,-37,-31,2,10,26,9,-2,31.6,33.01,1018.13,1,0
2022-11-02 15:17:30,991,130,-50,-48,-8,8,29,13,-5,31.6,33.01,1018.13,1,0
2022-11-02 15:17:30,991,130,-50,-48,-8,8,29,13,-5,31.6,33.01,1018.13,1,0
2022-11-02 15:17:30,991,130,-50,-48,-8,8,29,13,-5,31.6,33.01,1018.13,1,0
2022-11-02 15:17:30,1079,23,-23,-46,5,-5,26,16,-3,31.6,33.01,1018.13,1,0
2022-11-02 15:17:30,1079,23,-23,-46,5,-5,26,16,-3,31.6,33.01,1018.13,1,0
2022-11-02 15:17:30,1079,23,-23,-46,5,-5,26,16,-3,31.6,33.01,1018.13,1,0
2022-11-02 15:17:30,1120,-62,48,-49,3,7,24,18,-6,31.6,33.01,1018.13,1,0
2022-11-02 15:17:30,1120,-62,48,-49,3,7,24,18,-6,31.6,33.01,1018.13,1,0
2022-11-02 15:17:30,1120,-62,48,-49,3,7,24,18,-6,31.6,33.01,1018.13,1,0
2022-11-02 15:17:30,974,-62,21,-29,-2,8,26,25,-3,31.6,33.01,1018.13,1,0
2022-11-02 15:17:30,974,-62,21,-29,-2,8,26,25,-3,31.6,33.01,1018.13,1,0
2022-11-02 15:17:30,974,-62,21,-29,-2,8,26,25,-3,31.6,33.01,1018.13,1,0
2022-11-02 15:17:30,977,-40,-35,-31,-5,8,24,26,1,31.6,33.01,1018.13,1,0
2022-11-02 15:17:30,977,-40,-35,-31,-5,8,24,26,1,31.6,33.01,1018.13,1,0
2022-11-02 15:17:30,977,-40,-35,-31,-5,8,24,26,1,31.6,33.01,1018.13,1,0
2022-11-02 15:17:30,1038,-130,-54,-29,-2,5,26,30,1,31.6,33.01,1018.13,1,0
2022-11-02 15:17:30,1038,-130,-54,-29,-2,5,26,30,1,31.6,33.01,1018.13,1,0
2022-11-02 15:17:30,1038,-130,-54,-29,-2,5,26,30,1,31.6,33.01,1018.13,1,0
2022-11-02 15:17:30,999,-33,-122,-29,-5,6,25,30,3,31.6,33,1018.12,1,0
2022-11-02 15:17:30,999,-33,-122,-29,-5,6,25,30,3,31.6,33,1018.12,1,0
2022-11-02 15:17:30,999,-33,-122,-29,-5,6,25,30,3,31.6,33,1018.12,1,0
2022-11-02 15:17:30,964,-62,-121,-23,0,5,22,33,3,31.6,33,1018.12,1,0
2022-11-02 15:17:30,964,-62,-121,-23,0,5,22,33,3,31.6,33,1018.12,1,0
2022-11-02 15:17:30,964,-62,-121,-23,0,5,22,33,3,31.6,33,1018.12,1,0
2022-11-02 15:17:30,942,-64,-169,-16,5,-1,24,33,2,31.6,33,1018.12,1,0
2022-11-02 15:17:30,942,-64,-169,-16,5,-1,24,33,2,31.6,33,1018.12,1,0
2022-11-02 15:17:30,942,-64,-169,-16,5,-1,24,33,2,31.6,33,1018.12,1,0
2022-11-02 15:17:30,1015,-33,-128,-5,7,-12,25,33,0,31.6,33,1018.12,1,0
2022-11-02 15:17:30,1015,-33,-128,-5,7,-12,25,33,0,31.6,33,1018.12,1,0
2022-11-02 15:17:30,1015,-33,-128,-5,7,-12,25,33,0,31.6,33,1018.12,1,0
2022-11-02 15:17:31,1208,21,-44,-1,-3,-4,25,37,9,31.6,33,1018.12,1,0
2022-11-02 15:17:31,1208,21,-44,-1,-3,-4,25,37,9,31.6,33,1018.12,1,0
2022-11-02 15:17:31,1208,21,-44,-1,-3,-4,25,37,9,31.6,33,1018.12,1,0
2022-11-02 15:17:31,950,-76,-29,13,-4,1,27,39,3,31.6,33,1018.12,1,0
2022-11-02 15:17:31,950,-76,-29,13,-4,1,27,39,3,31.6,33,1018.12,1,0
2022-11-02 15:17:31,950,-76,-29,13,-4,1,27,39,3,31.6,33,1018.12,1,0
2022-11-02 15:17:31,1015,-103,23,4,2,-10,25,40,1,31.6,33,1018.12,1,0
2022-11-02 15:17:31,1015,-103,23,4,2,-10,25,40,1,31.6,33,1018.12,1,0
2022-11-02 15:17:31,1015,-103,23,4,2,-10,25,40,1,31.6,33,1018.12,1,0
2022-11-02 15:17:31,1030,-1,13,-7,3,-13,25,38,1,31.6,33,1018.12,1,0
2022-11-02 15:17:31,1030,-1,13,-7,3,-13,25,38,1,31.6,33,1018.12,1,0
2022-11-02 15:17:31,1030,-1,13,-7,3,-13,25,38,1,31.6,33,1018.12,1,0
2022-11-02 15:17:31,1011,40,29,-17,6,-3,26,37,3,31.6,33,1018.12,1,0
2022-11-02 15:17:31,1011,40,29,-17,6,-3,26,37,3,31.6,33,1018.12,1,0
2022-11-02 15:17:31,1011,40,29,-17,6,-3,26,37,3,31.6,33,1018.12,1,0
2022-11-02 15:17:31,1032,74,5,-25,1,-4,24,41,0,31.6,33,1018.12,1,0
2022-11-02 15:17:31,1032,74,5,-25,1,-4,24,41,0,31.6,33,1018.12,1,0
2022-11-02 15:17:31,1032,74,5,-25,1,-4,24,41,0,31.6,33,1018.12,1,0
2022-11-02 15:17:31,1001,74,-1,-38,4,-3,25,42,3,31.6,32.96,1018.12,1,0
2022-11-02 15:17:31,1001,74,-1,-38,4,-3,25,42,3,31.6,32.96,1018.12,1,0
2022-11-02 15:17:31,1001,74,-1,-38,4,-3,25,42,3,31.6,32.96,1018.12,1,0
2022-11-02 15:17:31,1007,121,-5,-48,1,5,26,47,6,31.6,32.96,1018.12,1,0
2022-11-02 15:17:31,1007,121,-5,-48,1,5,26,47,6,31.6,32.96,1018.12,1,0
2022-11-02 15:17:31,1007,121,-5,-48,1,5,26,47,6,31.6,32.96,1018.12,1,0
2022-11-02 15:17:31,1022,87,9,-58,-2,13,24,49,12,31.6,32.96,1018.12,1,0
2022-11-02 15:17:31,1022,87,9,-58,-2,13,24,49,12,31.6,32.96,1018.12,1,0
2022-11-02 15:17:31,1022,87,9,-58,-2,13,24,49,12,31.6,32.96,1018.12,1,0
2022-11-02 15:17:31,1028,40,-7,-65,-7,3,26,54,10,31.6,32.96,1018.12,1,0
2022-11-02 15:17:31,1028,40,-7,-65,-7,3,26,54,10,31.6,32.96,1018.12,1,0
2022-11-02 15:17:31,1028,40,-7,-65,-7,3,26,54,10,31.6,32.96,1018.12,1,0
2022-11-02 15:17:32,1110,19,-29,-90,-8,7,24,57,17,31.6,32.96,1018.12,1,0
2022-11-02 15:17:32,1110,19,-29,-90,-8,7,24,57,17,31.6,32.96,1018.12,1,0
2022-11-02 15:17:32,1110,19,-29,-90,-8,7,24,57,17,31.6,32.96,1018.12,1,0
2022-11-02 15:17:32,1024,-72,52,-68,2,7,26,61,23,31.6,32.96,1018.12,1,0
2022-11-02 15:17:32,1024,-72,52,-68,2,7,26,61,23,31.6,32.96,1018.12,1,0
2022-11-02 15:17:32,1024,-72,52,-68,2,7,26,61,23,31.6,32.96,1018.12,1,0
2022-11-02 15:17:32,1007,-111,-3,-73,1,15,27,63,29,31.6,32.96,1018.12,1,0
2022-11-02 15:17:32,1007,-111,-3,-73,1,15,27,63,29,31.6,32.96,1018.12,1,0
2022-11-02 15:17:32,1007,-111,-3,-73,1,15,27,63,29,31.6,32.96,1018.12,1,0
2022-11-02 15:17:32,985,-58,-21,-81,-1,18,27,62,36,31.6,32.96,1018.12,1,0
2022-11-02 15:17:32,985,-58,-21,-81,-1,18,27,62,36,31.6,32.96,1018.12,1,0
2022-11-02 15:17:32,985,-58,-21,-81,-1,18,27,62,36,31.6,32.96,1018.12,1,0
2022-11-02 15:17:32,1020,-115,-91,-68,2,11,30,64,38,31.6,32.96,1018.12,1,0
2022-11-02 15:17:32,1020,-115,-91,-68,2,11,30,64,38,31.6,32.96,1018.12,1,0
2022-11-02 15:17:32,1020,-115,-91,-68,2,11,30,64,38,31.6,32.96,1018.12,1,0
2022-11-02 15:17:32,1015,-42,-111,-64,1,5,28,62,51,31.6,32.96,1018.12,1,0
2022-11-02 15:17:32,1015,-42,-111,-64,1,5,28,62,51,31.6,32.96,1018.12,1,0
2022-11-02 15:17:32,1015,-42,-111,-64,1,5,28,62,51,31.6,32.96,1018.12,1,0
2022-11-02 15:17:32,987,-40,-158,-38,3,0,30,64,55,31.6,33.63,1018.09,1,0
2022-11-02 15:17:32,987,-40,-158,-38,3,0,30,64,55,31.6,33.63,1018.09,1,0
2022-11-02 15:17:32,987,-40,-158,-38,3,0,30,64,55,31.6,33.63,1018.09,1,0
2022-11-02 15:17:32,983,-80,-124,-25,7,-9,32,62,64,31.6,33.63,1018.09,1,0
2022-11-02 15:17:32,983,-80,-124,-25,7,-9,32,62,64,31.6,33.63,1018.09,1,0
2022-11-02 15:17:32,983,-80,-124,-25,7,-9,32,62,64,31.6,33.63,1018.09,1,0
2022-11-02 15:17:32,1040,-111,-130,-14,5,-14,30,60,63,31.6,33.63,1018.09,1,0
2022-11-02 15:17:32,1040,-111,-130,-14,5,-14,30,60,63,31.6,33.63,1018.09,1,0
2022-11-02 15:17:32,1040,-111,-130,-14,5,-14,30,60,63,31.6,33.63,1018.09,1,0
2022-11-02 15:17:32,1097,9,-105,-10,-4,-10,31,63,63,31.6,33.63,1018.09,1,0
2022-11-02 15:17:32,1097,9,-105,-10,-4,-10,31,63,63,31.6,33.63,1018.09,1,0
2022-11-02 15:17:32,1097,9,-105,-10,-4,-10,31,63,63,31.6,33.63,1018.09,1,0
2022-11-02 15:17:33,995,-132,-42,-10,-3,0,29,62,66,31.6,33.63,1018.09,1,0
2022-11-02 15:17:33,995,-132,-42,-10,-3,0,29,62,66,31.6,33.63,1018.09,1,0
2022-11-02 15:17:33,995,-132,-42,-10,-3,0,29,62,66,31.6,33.63,1018.09,1,0
2022-11-02 15:17:33,966,3,-19,-30,-3,-2,26,63,62,31.6,33.63,1018.09,1,0
2022-11-02 15:17:33,966,3,-19,-30,-3,-2,26,63,62,31.6,33.63,1018.09,1,0
2022-11-02 15:17:33,966,3,-19,-30,-3,-2,26,63,62,31.6,33.63,1018.09,1,0
2022-11-02 15:17:33,989,-33,11,-52,9,-14,31,61,67,31.6,33.63,1018.09,1,0
2022-11-02 15:17:33,989,-33,11,-52,9,-14,31,61,67,31.6,33.63,1018.09,1,0
2022-11-02 15:17:33,989,-33,11,-52,9,-14,31,61,67,31.6,33.63,1018.09,1,0
2022-11-02 15:17:33,1034,124,44,-50,7,-12,29,60,70,31.6,33.63,1018.09,1,0
2022-11-02 15:17:33,1034,124,44,-50,7,-12,29,60,70,31.6,33.63,1018.09,1,0
2022-11-02 15:17:33,1034,124,44,-50,7,-12,29,60,70,31.6,33.63,1018.09,1,0
2022-11-02 15:17:33,1015,154,-23,-57,4,-4,26,62,74,31.6,33.63,1018.09,1,0
2022-11-02 15:17:33,1015,154,-23,-57,4,-4,26,62,74,31.6,33.63,1018.09,1,0
2022-11-02 15:17:33,1015,154,-23,-57,4,-4,26,62,74,31.6,33.63,1018.09,1,0
2022-11-02 15:17:33,1005,115,1,-51,10,2,24,56,78,31.6,33.63,1018.09,1,0
2022-11-02 15:17:33,1005,115,1,-51,10,2,24,56,78,31.6,33.63,1018.09,1,0
2022-11-02 15:17:33,1005,115,1,-51,10,2,24,56,78,31.6,33.63,1018.09,1,0
2022-11-02 15:17:33,1026,138,5,-41,4,2,24,53,82,31.6,33.17,1018.13,1,0
2022-11-02 15:17:33,1026,138,5,-41,4,2,24,53,82,31.6,33.17,1018.13,1,0
2022-11-02 15:17:33,1026,138,5,-41,4,2,24,53,82,31.6,33.17,1018.13,1,0
2022-11-02 15:17:33,1015,121,-1,-28,2,5,24,51,90,31.6,33.17,1018.13,1,0
2022-11-02 15:17:33,1015,121,-1,-28,2,5,24,51,90,31.6,33.17,1018.13,1,0
2022-11-02 15:17:33,1015,121,-1,-28,2,5,24,51,90,31.6,33.17,1018.13,1,0
2022-11-02 15:17:33,1011,97,-23,-35,-2,9,27,48,89,31.6,33.17,1018.13,1,0
2022-11-02 15:17:33,1011,97,-23,-35,-2,9,27,48,89,31.6,33.17,1018.13,1,0
2022-11-02 15:17:33,1011,97,-23,-35,-2,9,27,48,89,31.6,33.17,1018.13,1,0
2022-11-02 15:17:33,993,109,-31,-48,-7,10,25,46,93,31.6,33.17,1018.13,1,0
2022-11-02 15:17:33,993,109,-31,-48,-7,10,25,46,93,31.6,33.17,1018.13,1,0
2022-11-02 15:17:33,993,109,-31,-48,-7,10,25,46,93,31.6,33.17,1018.13,1,0
2022-11-02 15:17:34,1093,91,-21,-40,-2,7,26,39,99,31.6,33.17,1018.13,1,0
2022-11-02 15:17:34,1093,91,-21,-40,-2,7,26,39,99,31.6,33.17,1018.13,1,0
2022-11-02 15:17:34,1093,91,-21,-40,-2,7,26,39,99,31.6,33.17,1018.13,1,0
2022-11-02 15:17:34,1009,-58,78,-25,9,-2,26,39,96,31.6,33.17,1018.13,1,0
2022-11-02 15:17:34,1009,-58,78,-25,9,-2,26,39,96,31.6,33.17,1018.13,1,0
2022-11-02 15:17:34,1009,-58,78,-25,9,-2,26,39,96,31.6,33.17,1018.13,1,0
2022-11-02 15:17:34,1018,48,-13,-53,-1,11,28,34,95,31.6,33.17,1018.13,1,0
2022-11-02 15:17:34,1018,48,-13,-53,-1,11,28,34,95,31.6,33.17,1018.13,1,0
2022-11-02 15:17:34,1018,48,-13,-53,-1,11,28,34,95,31.6,33.17,1018.13,1,0
2022-11-02 15:17:34,1028,0,23,-27,-3,10,26,30,104,31.6,33.17,1018.13,1,0
2022-11-02 15:17:34,1028,0,23,-27,-3,10,26,30,104,31.6,33.17,1018.13,1,0
2022-11-02 15:17:34,1028,0,23,-27,-3,10,26,30,104,31.6,33.17,1018.13,1,0
2022-11-02 15:17:34,983,-76,-3,-19,-8,4,29,26,102,31.6,33.17,1018.13,1,0
2022-11-02 15:17:34,983,-76,-3,-19,-8,4,29,26,102,31.6,33.17,1018.13,1,0
2022-11-02 15:17:34,983,-76,-3,-19,-8,4,29,26,102,31.6,33.17,1018.13,1,0
2022-11-02 15:17:34,1063,0,-80,-3,-12,0,31,23,98,31.6,33.17,1018.13,1,0
2022-11-02 15:17:34,1063,0,-80,-3,-12,0,31,23,98,31.6,33.17,1018.13,1,0
2022-11-02 15:17:34,1063,0,-80,-3,-12,0,31,23,98,31.6,33.17,1018.13,1,0
2022-11-02 15:17:34,983,-37,-91,17,-8,3,31,21,100,31.6,33.03,1018.09,1,0
2022-11-02 15:17:34,983,-37,-91,17,-8,3,31,21,100,31.6,33.03,1018.09,1,0
2022-11-02 15:17:34,983,-37,-91,17,-8,3,31,21,100,31.6,33.03,1018.09,1,0
2022-11-02 15:17:34,979,-85,-105,20,-6,1,32,23,97,31.6,33.03,1018.09,1,0
2022-11-02 15:17:34,979,-85,-105,20,-6,1,32,23,97,31.6,33.03,1018.09,1,0
2022-11-02 15:17:34,979,-85,-105,20,-6,1,32,23,97,31.6,33.03,1018.09,1,0
2022-11-02 15:17:34,936,-33,-128,23,1,-8,34,24,95,31.6,33.03,1018.09,1,0
2022-11-02 15:17:34,936,-33,-128,23,1,-8,34,24,95,31.6,33.03,1018.09,1,0
2022-11-02 15:17:34,936,-33,-128,23,1,-8,34,24,95,31.6,33.03,1018.09,1,0
2022-11-02 15:17:34,993,-46,-115,17,7,-8,33,29,92,31.6,33.03,1018.09,1,0
2022-11-02 15:17:34,993,-46,-115,17,7,-8,33,29,92,31.6,33.03,1018.09,1,0
2022-11-02 15:17:34,993,-46,-115,17,7,-8,33,29,92,31.6,33.03,1018.09,1,0
2022-11-02 15:17:35,1069,48,-160,20,5,-12,33,30,96,31.6,33.03,1018.09,1,0
2022-11-02 15:17:35,1069,48,-160,20,5,-12,33,30,96,31.6,33.03,1018.09,1,0
2022-11-02 15:17:35,1069,48,-160,20,5,-12,33,30,96,31.6,33.03,1018.09,1,0
2022-11-02 15:17:35,1147,-62,-33,32,1,-5,32,32,95,31.6,33.03,1018.09,1,0
2022-11-02 15:17:35,1147,-62,-33,32,1,-5,32,32,95,31.6,33.03,1018.09,1,0
2022-11-02 15:17:35,1147,-62,-33,32,1,-5,32,32,95,31.6,33.03,1018.09,1,0
2022-11-02 15:17:35,911,-1,-58,3,-5,-4,32,37,94,31.6,33.03,1018.09,1,0
2022-11-02 15:17:35,911,-1,-58,3,-5,-4,32,37,94,31.6,33.03,1018.09,1,0
2022-11-02 15:17:35,911,-1,-58,3,-5,-4,32,37,94,31.6,33.03,1018.09,1,0
2022-11-02 15:17:35,1032,-72,97,10,13,-3,31,36,88,31.6,33.03,1018.09,1,0
2022-11-02 15:17:35,1032,-72,97,10,13,-3,31,36,88,31.6,33.03,1018.09,1,0
2022-11-02 15:17:35,1032,-72,97,10,13,-3,31,36,88,31.6,33.03,1018.09,1,0
2022-11-02 15:17:35,977,39,39,-6,-4,-3,30,39,93,31.6,33.03,1018.09,1,0
2022-11-02 15:17:35,977,39,39,-6,-4,-3,30,39,93,31.6,33.03,1018.09,1,0
2022-11-02 15:17:35,977,39,39,-6,-4,-3,30,39,93,31.6,33.03,1018.09,1,0
2022-11-02 15:17:35,1018,27,25,-7,-1,-5,30,37,94,31.6,33.03,1018.09,1,0
2022-11-02 15:17:35,1018,27,25,-7,-1,-5,30,37,94,31.6,33.03,1018.09,1,0
2022-11-02 15:17:35,1018,27,25,-7,-1,-5,30,37,94,31.6,33.03,1018.09,1,0
2022-11-02 15:17:35,997,107,11,-29,3,-8,32,39,92,31.6,33.04,1018.15,1,0
2022-11-02 15:17:35,997,107,11,-29,3,-8,32,39,92,31.6,33.04,1018.15,1,0
2022-11-02 15:17:35,997,107,11,-29,3,-8,32,39,92,31.6,33.04,1018.15,1,0
2022-11-02 15:17:35,1011,128,-3,-27,7,1,31,37,97,31.6,33.04,1018.15,1,0
2022-11-02 15:17:35,1011,128,-3,-27,7,1,31,37,97,31.6,33.04,1018.15,1,0
2022-11-02 15:17:35,1011,128,-3,-27,7,1,31,37,97,31.6,33.04,1018.15,1,0
2022-11-02 15:17:35,1016,87,-15,-24,3,6,30,37,98,31.6,33.04,1018.15,1,0
2022-11-02 15:17:35,1016,87,-15,-24,3,6,30,37,98,31.6,33.04,1018.15,1,0
2022-11-02 15:17:35,1016,87,-15,-24,3,6,30,37,98,31.6,33.04,1018.15,1,0
2022-11-02 15:17:35,1016,97,5,-23,-3,3,30,32,100,31.6,33.04,1018.15,1,0
2022-11-02 15:17:35,1016,97,5,-23,-3,3,30,32,100,31.6,33.04,1018.15,1,0
2022-11-02 15:17:35,1016,97,5,-23,-3,3,30,32,100,31.6,33.04,1018.15,1,0
2022-11-02 15:17:36,1013,83,-35,-29,-3,8,29,32,97,31.6,33.04,1018.15,1,0
2022-11-02 15:17:36,1013,83,-35,-29,-3,8,29,32,97,31.6,33.04,1018.15,1,0
2022-11-02 15:17:36,1013,83,-35,-29,-3,8,29,32,97,31.6,33.04,1018.15,1,0
2022-11-02 15:17:36,1005,70,-52,-39,-2,11,33,25,98,31.6,33.04,1018.15,1,0
2022-11-02 15:17:36,1005,70,-52,-39,-2,11,33,25,98,31.6,33.04,1018.15,1,0
2022-11-02 15:17:36,1005,70,-52,-39,-2,11,33,25,98,31.6,33.04,1018.15,1,0
2022-11-02 15:17:36,1005,95,-91,-50,-7,10,32,21,97,31.6,33.04,1018.15,1,0
2022-11-02 15:17:36,1005,95,-91,-50,-7,10,32,21,97,31.6,33.04,1018.15,1,0
2022-11-02 15:17:36,1005,95,-91,-50,-7,10,32,21,97,31.6,33.04,1018.15,1,0
2022-11-02 15:17:36,1067,19,11,-23,14,-1,33,19,101,31.6,33.04,1018.15,1,0
2022-11-02 15:17:36,1067,19,11,-23,14,-1,33,19,101,31.6,33.04,1018.15,1,0
2022-11-02 15:17:36,1067,19,11,-23,14,-1,33,19,101,31.6,33.04,1018.15,1,0
2022-11-02 15:17:36,1024,-9,21,-29,6,-1,34,14,102,31.6,33.04,1018.15,1,0
2022-11-02 15:17:36,1024,-9,21,-29,6,-1,34,14,102,31.6,33.04,1018.15,1,0
2022-11-02 15:17:36,1024,-9,21,-29,6,-1,34,14,102,31.6,33.04,1018.15,1,0
2022-11-02 15:17:36,1018,9,5,-12,2,9,32,12,105,31.6,33.04,1018.15,1,0
2022-11-02 15:17:36,1018,9,5,-12,2,9,32,12,105,31.6,33.04,1018.15,1,0
2022-11-02 15:17:36,1018,9,5,-12,2,9,32,12,105,31.6,33.04,1018.15,1,0
2022-11-02 15:17:36,970,-87,35,-5,-2,6,33,10,102,31.6,33.04,1018.09,1,0
2022-11-02 15:17:36,970,-87,35,-5,-2,6,33,10,102,31.6,33.04,1018.09,1,0
2022-11-02 15:17:36,970,-87,35,-5,-2,6,33,10,102,31.6,33.04,1018.09,1,0
2022-11-02 15:17:36,1079,-31,-25,2,-10,-3,31,8,100,31.6,33.04,1018.09,1,0
2022-11-02 15:17:36,1079,-31,-25,2,-10,-3,31,8,100,31.6,33.04,1018.09,1,0
2022-11-02 15:17:36,1079,-31,-25,2,-10,-3,31,8,100,31.6,33.04,1018.09,1,0
2022-11-02 15:17:36,1015,-27,-58,19,-8,0,35,11,105,31.6,33.04,1018.09,1,0
2022-11-02 15:17:36,1015,-27,-58,19,-8,0,35,11,105,31.6,33.04,1018.09,1,0
2022-11-02 15:17:36,1015,-27,-58,19,-8,0,35,11,105,31.6,33.04,1018.09,1,0
2022-11-02 15:17:36,977,-23,-74,21,-2,6,35,11,101,31.6,33.04,1018.09,1,0
2022-11-02 15:17:36,977,-23,-74,21,-2,6,35,11,101,31.6,33.04,1018.09,1,0
2022-11-02 15:17:36,977,-23,-74,21,-2,6,35,11,101,31.6,33.04,1018.09,1,0
2022-11-02 15:17:37,974,-48,-97,35,3,-2,33,11,99,31.6,33.04,1018.09,1,0
2022-11-02 15:17:37,974,-48,-97,35,3,-2,33,11,99,31.6,33.04,1018.09,1,0
2022-11-02 15:17:37,974,-48,-97,35,3,-2,33,11,99,31.6,33.04,1018.09,1,0
2022-11-02 15:17:37,991,-74,-97,29,6,-8,35,14,102,31.6,33.04,1018.09,1,0
2022-11-02 15:17:37,991,-74,-97,29,6,-8,35,14,102,31.6,33.04,1018.09,1,0
2022-11-02 15:17:37,991,-74,-97,29,6,-8,35,14,102,31.6,33.04,1018.09,1,0
2022-11-02 15:17:37,1013,-35,-89,20,8,-8,34,20,100,31.6,33.04,1018.09,1,0
2022-11-02 15:17:37,1013,-35,-89,20,8,-8,34,20,100,31.6,33.04,1018.09,1,0
2022-11-02 15:17:37,1013,-35,-89,20,8,-8,34,20,100,31.6,33.04,1018.09,1,0
2022-11-02 15:17:37,1186,46,-5,48,-5,-6,32,24,98,31.6,33.04,1018.09,1,0
2022-11-02 15:17:37,1186,46,-5,48,-5,-6,32,24,98,31.6,33.04,1018.09,1,0
2022-11-02 15:17:37,1186,46,-5,48,-5,-6,32,24,98,31.6,33.04,1018.09,1,0
2022-11-02 15:17:37,940,-95,-39,10,-12,3,34,25,102,31.6,33.04,1018.09,1,0
2022-11-02 15:17:37,940,-95,-39,10,-12,3,34,25,102,31.6,33.04,1018.09,1,0
2022-11-02 15:17:37,940,-95,-39,10,-12,3,34,25,102,31.6,33.04,1018.09,1,0
2022-11-02 15:17:37,1003,-64,87,18,10,-2,37,28,99,31.6,33.04,1018.09,1,0
2022-11-02 15:17:37,1003,-64,87,18,10,-2,37,28,99,31.6,33.04,1018.09,1,0
2022-11-02 15:17:37,1003,-64,87,18,10,-2,37,28,99,31.6,33.04,1018.09,1,0
2022-11-02 15:17:37,991,60,70,11,-7,-2,37,26,101,31.7,33.05,1018.14,1,0
2022-11-02 15:17:37,991,60,70,11,-7,-2,37,26,101,31.7,33.05,1018.14,1,0
2022-11-02 15:17:37,991,60,70,11,-7,-2,37,26,101,31.7,33.05,1018.14,1,0
2022-11-02 15:17:37,1052,0,37,14,0,-10,39,30,95,31.7,33.05,1018.14,1,0
2022-11-02 15:17:37,1052,0,37,14,0,-10,39,30,95,31.7,33.05,1018.14,1,0
2022-11-02 15:17:37,1052,0,37,14,0,-10,39,30,95,31.7,33.05,1018.14,1,0
2022-11-02 15:17:37,989,132,-3,-4,7,-10,39,33,100,31.7,33.05,1018.14,1,0
2022-11-02 15:17:37,989,132,-3,-4,7,-10,39,33,100,31.7,33.05,1018.14,1,0
2022-11-02 15:17:37,989,132,-3,-4,7,-10,39,33,100,31.7,33.05,1018.14,1,0
2022-11-02 15:17:37,1028,99,11,11,7,-1,38,35,97,31.7,33.05,1018.14,1,0
2022-11-02 15:17:37,1028,99,11,11,7,-1,38,35,97,31.7,33.05,1018.14,1,0
2022-11-02 15:17:37,1028,99,11,11,7,-1,38,35,97,31.7,33.05,1018.14,1,0
2022-11-02 15:17:38,1016,62,11,5,5,4,39,33,96,31.7,33.05,1018.14,1,0
2022-11-02 15:17:38,1016,62,11,5,5,4,39,33,96,31.7,33.05,1018.14,1,0
2022-11-02 15:17:38,1016,62,11,5,5,4,39,33,96,31.7,33.05,1018.14,1,0
2022-11-02 15:17:38,1016,83,-11,-7,0,9,35,34,99,31.7,33.05,1018.14,1,0
2022-11-02 15:17:38,1016,83,-11,-7,0,9,35,34,99,31.7,33.05,1018.14,1,0
2022-11-02 15:17:38,1016,83,-11,-7,0,9,35,34,99,31.7,33.05,1018.14,1,0
2022-11-02 15:17:38,1013,76,-25,-20,-2,14,38,35,94,31.7,33.05,1018.14,1,0
2022-11-02 15:17:38,1013,76,-25,-20,-2,14,38,35,94,31.7,33.05,1018.14,1,0
2022-11-02 15:17:38,1013,76,-25,-20,-2,14,38,35,94,31.7,33.05,1018.14,1,0
2022-11-02 15:17:38,1056,64,-21,-37,-2,5,36,32,96,31.7,33.05,1018.14,1,0
2022-11-02 15:17:38,1056,64,-21,-37,-2,5,36,32,96,31.7,33.05,1018.14,1,0
2022-11-02 15:17:38,1056,64,-21,-37,-2,5,36,32,96,31.7,33.05,1018.14,1,0
2022-11-02 15:17:38,1052,91,1,-10,7,-14,38,31,97,31.7,33.05,1018.14,1,0
2022-11-02 15:17:38,1052,91,1,-10,7,-14,38,31,97,31.7,33.05,1018.14,1,0
2022-11-02 15:17:38,1052,91,1,-10,7,-14,38,31,97,31.7,33.05,1018.14,1,0
2022-11-02 15:17:38,1048,-21,35,-12,-8,1,40,30,95,31.7,33.05,1018.14,1,0
2022-11-02 15:17:38,1048,-21,35,-12,-8,1,40,30,95,31.7,33.05,1018.14,1,0
2022-11-02 15:17:38,1048,-21,35,-12,-8,1,40,30,95,31.7,33.05,1018.14,1,0
2022-11-02 15:17:38,977,1,25,10,-9,4,37,27,97,31.7,33.05,1018.06,1,0
2022-11-02 15:17:38,977,1,25,10,-9,4,37,27,97,31.7,33.05,1018.06,1,0
2022-11-02 15:17:38,977,1,25,10,-9,4,37,27,97,31.7,33.05,1018.06,1,0
2022-11-02 15:17:38,1011,-113,-27,2,-10,1,39,29,91,31.7,33.05,1018.06,1,0
2022-11-02 15:17:38,1011,-113,-27,2,-10,1,39,29,91,31.7,33.05,1018.06,1,0
2022-11-02 15:17:38,1011,-113,-27,2,-10,1,39,29,91,31.7,33.05,1018.06,1,0
2022-11-02 15:17:38,1050,56,-107,30,-12,-1,40,27,97,31.7,33.05,1018.06,1,0
2022-11-02 15:17:38,1050,56,-107,30,-12,-1,40,27,97,31.7,33.05,1018.06,1,0
2022-11-02 15:17:38,1050,56,-107,30,-12,-1,40,27,97,31.7,33.05,1018.06,1,0
2022-11-02 15:17:38,976,-83,-78,38,-6,9,44,21,85,31.7,33.05,1018.06,1,0
2022-11-02 15:17:38,976,-83,-78,38,-6,9,44,21,85,31.7,33.05,1018.06,1,0
2022-11-02 15:17:38,976,-83,-78,38,-6,9,44,21,85,31.7,33.05,1018.06,1,0
2022-11-02 15:17:39,966,-74,-70,29,1,4,40,32,88,31.7,33.05,1018.06,1,0
2022-11-02 15:17:39,966,-74,-70,29,1,4,40,32,88,31.7,33.05,1018.06,1,0
2022-11-02 15:17:39,966,-74,-70,29,1,4,40,32,88,31.7,33.05,1018.06,1,0
2022-11-02 15:17:39,968,-72,-101,28,10,-2,44,28,89,31.7,33.05,1018.06,1,0
2022-11-02 15:17:39,968,-72,-101,28,10,-2,44,28,89,31.7,33.05,1018.06,1,0
2022-11-02 15:17:39,968,-72,-101,28,10,-2,44,28,89,31.7,33.05,1018.06,1,0
2022-11-02 15:17:39,1018,-31,-70,19,14,-1,44,30,84,31.7,33.05,1018.06,1,0
2022-11-02 15:17:39,1018,-31,-70,19,14,-1,44,30,84,31.7,33.05,1018.06,1,0
2022-11-02 15:17:39,1018,-31,-70,19,14,-1,44,30,84,31.7,33.05,1018.06,1,0
2022-11-02 15:17:39,1028,48,-107,23,7,-8,43,35,87,31.7,33.05,1018.06,1,0
2022-11-02 15:17:39,1028,48,-107,23,7,-8,43,35,87,31.7,33.05,1018.06,1,0
2022-11-02 15:17:39,1028,48,-107,23,7,-8,43,35,87,31.7,33.05,1018.06,1,0
2022-11-02 15:17:39,1173,27,-35,41,-1,-7,42,34,89,31.7,33.05,1018.06,1,0
2022-11-02 15:17:39,1173,27,-35,41,-1,-7,42,34,89,31.7,33.05,1018.06,1,0
2022-11-02 15:17:39,1173,27,-35,41,-1,-7,42,34,89,31.7,33.05,1018.06,1,0
2022-11-02 15:17:39,923,-40,-46,24,-12,0,39,37,85,31.7,33.05,1018.06,1,0
2022-11-02 15:17:39,923,-40,-46,24,-12,0,39,37,85,31.7,33.05,1018.06,1,0
2022-11-02 15:17:39,923,-40,-46,24,-12,0,39,37,85,31.7,33.05,1018.06,1,0
2022-11-02 15:17:39,1003,-76,109,40,14,-3,41,40,84,31.7,33.05,1018.13,1,0
2022-11-02 15:17:39,1003,-76,109,40,14,-3,41,40,84,31.7,33.05,1018.13,1,0
2022-11-02 15:17:39,1003,-76,109,40,14,-3,41,40,84,31.7,33.05,1018.13,1,0
2022-11-02 15:17:39,977,42,64,25,1,-2,42,41,81,31.7,33.05,1018.13,1,0
2022-11-02 15:17:39,977,42,64,25,1,-2,42,41,81,31.7,33.05,1018.13,1,0
2022-11-02 15:17:39,977,42,64,25,1,-2,42,41,81,31.7,33.05,1018.13,1,0
2022-11-02 15:17:39,1050,-1,60,32,4,-8,40,43,80,31.7,33.05,1018.13,1,0
2022-11-02 15:17:39,1050,-1,60,32,4,-8,40,43,80,31.7,33.05,1018.13,1,0
2022-11-02 15:17:39,1050,-1,60,32,4,-8,40,43,80,31.7,33.05,1018.13,1,0
2022-11-02 15:17:39,995,74,31,9,5,-11,43,44,76,31.7,33.05,1018.13,1,0
2022-11-02 15:17:39,995,74,31,9,5,-11,43,44,76,31.7,33.05,1018.13,1,0
2022-11-02 15:17:39,995,74,31,9,5,-11,43,44,76,31.7,33.05,1018.13,1,0
2022-11-02 15:17:40,1020,121,27,12,8,-3,40,45,76,31.7,33.05,1018.13,1,0
2022-11-02 15:17:40,1020,121,27,12,8,-3,40,45,76,31.7,33.05,1018.13,1,0
2022-11-02 15:17:40,1020,121,27,12,8,-3,40,45,76,31.7,33.05,1018.13,1,0
2022-11-02 15:17:40,995,107,31,10,5,4,40,44,79,31.7,33.05,1018.13,1,0
2022-11-02 15:17:40,995,107,31,10,5,4,40,44,79,31.7,33.05,1018.13,1,0
2022-11-02 15:17:40,995,107,31,10,5,4,40,44,79,31.7,33.05,1018.13,1,0
2022-11-02 15:17:40,1013,83,21,-4,-1,14,41,48,81,31.7,33.05,1018.13,1,0
2022-11-02 15:17:40,1013,83,21,-4,-1,14,41,48,81,31.7,33.05,1018.13,1,0
2022-11-02 15:17:40,1013,83,21,-4,-1,14,41,48,81,31.7,33.05,1018.13,1,0
2022-11-02 15:17:40,1015,99,-9,-11,-8,13,41,44,79,31.7,33.05,1018.13,1,0
2022-11-02 15:17:40,1015,99,-9,-11,-8,13,41,44,79,31.7,33.05,1018.13,1,0
2022-11-02 15:17:40,1015,99,-9,-11,-8,13,41,44,79,31.7,33.05,1018.13,1,0
2022-11-02 15:17:40,1120,76,-21,-22,-5,-4,42,46,74,31.7,33.05,1018.13,1,0
2022-11-02 15:17:40,1120,76,-21,-22,-5,-4,42,46,74,31.7,33.05,1018.13,1,0
2022-11-02 15:17:40,1120,76,-21,-22,-5,-4,42,46,74,31.7,33.05,1018.13,1,0
2022-11-02 15:17:40,1138,-27,156,11,7,-6,46,42,81,31.7,33.05,1018.13,1,0
2022-11-02 15:17:40,1138,-27,156,11,7,-6,46,42,81,31.7,33.05,1018.13,1,0
2022-11-02 15:17:40,1138,-27,156,11,7,-6,46,42,81,31.7,33.05,1018.13,1,0
2022-11-02 15:17:40,929,54,33,2,-13,5,40,44,79,31.7,33.05,1018.15,1,0
2022-11-02 15:17:40,929,54,33,2,-13,5,40,44,79,31.7,33.05,1018.15,1,0
2022-11-02 15:17:40,929,54,33,2,-13,5,40,44,79,31.7,33.05,1018.15,1,0
2022-11-02 15:17:40,1046,-162,17,10,0,0,40,44,79,31.7,33.05,1018.15,1,0
2022-11-02 15:17:40,1046,-162,17,10,0,0,40,44,79,31.7,33.05,1018.15,1,0
2022-11-02 15:17:40,1046,-162,17,10,0,0,40,44,79,31.7,33.05,1018.15,1,0
2022-11-02 15:17:40,1057,40,-52,28,-16,0,41,44,73,31.7,33.05,1018.15,1,0
2022-11-02 15:17:40,1057,40,-52,28,-16,0,41,44,73,31.7,33.05,1018.15,1,0
2022-11-02 15:17:40,1057,40,-52,28,-16,0,41,44,73,31.7,33.05,1018.15,1,0
2022-11-02 15:17:40,966,-74,-60,33,-8,5,40,48,70,31.7,33.05,1018.15,1,0
2022-11-02 15:17:40,966,-74,-60,33,-8,5,40,48,70,31.7,33.05,1018.15,1,0
2022-11-02 15:17:40,966,-74,-60,33,-8,5,40,48,70,31.7,33.05,1018.15,1,0
2022-11-02 15:17:41,942,5,-113,26,-5,0,42,49,71,31.7,33.05,1018.15,1,0
2022-11-02 15:17:41,942,5,-113,26,-5,0,42,49,71,31.7,33.05,1018.15,1,0
2022-11-02 15:17:41,942,5,-113,26,-5,0,42,49,71,31.7,33.05,1018.15,1,0
2022-11-02 15:17:41,966,-58,-85,28,11,-1,41,49,69,31.7,33.05,1018.15,1,0
2022-11-02 15:17:41,966,-58,-85,28,11,-1,41,49,69,31.7,33.05,1018.15,1,0
2022-11-02 15:17:41,966,-58,-85,28,11,-1,41,49,69,31.7,33.05,1018.15,1,0
2022-11-02 15:17:41,987,-21,-81,19,12,-2,41,51,69,31.7,33.05,1018.15,1,0
2022-11-02 15:17:41,987,-21,-81,19,12,-2,41,51,69,31.7,33.05,1018.15,1,0
2022-11-02 15:17:41,987,-21,-81,19,12,-2,41,51,69,31.7,33.05,1018.15,1,0
2022-11-02 15:17:41,1018,107,-163,44,2,-12,44,51,65,31.7,33.05,1018.15,1,0
2022-11-02 15:17:41,1018,107,-163,44,2,-12,44,51,65,31.7,33.05,1018.15,1,0
2022-11-02 15:17:41,1018,107,-163,44,2,-12,44,51,65,31.7,33.05,1018.15,1,0
2022-11-02 15:17:41,1231,-103,72,35,0,2,40,53,66,31.7,33.05,1018.15,1,0
2022-11-02 15:17:41,1231,-103,72,35,0,2,40,53,66,31.7,33.05,1018.15,1,0
2022-11-02 15:17:41,1231,-103,72,35,0,2,40,53,66,31.7,33.05,1018.15,1,0
2022-11-02 15:17:41,938,13,-46,11,-12,-3,41,55,61,31.7,33.05,1018.15,1,0
2022-11-02 15:17:41,938,13,-46,11,-12,-3,41,55,61,31.7,33.05,1018.15,1,0
2022-11-02 15:17:41,938,13,-46,11,-12,-3,41,55,61,31.7,33.05,1018.15,1,0
2022-11-02 15:17:41,968,-62,74,25,5,-3,41,55,60,31.7,33.05,1018.12,1,0
2022-11-02 15:17:41,968,-62,74,25,5,-3,41,55,60,31.7,33.05,1018.12,1,0
2022-11-02 15:17:41,968,-62,74,25,5,-3,41,55,60,31.7,33.05,1018.12,1,0
2022-11-02 15:17:41,1024,72,60,25,-5,0,38,54,58,31.7,33.05,1018.12,1,0
2022-11-02 15:17:41,1024,72,60,25,-5,0,38,54,58,31.7,33.05,1018.12,1,0
2022-11-02 15:17:41,1024,72,60,25,-5,0,38,54,58,31.7,33.05,1018.12,1,0
2022-11-02 15:17:41,1007,48,-21,-1,2,-14,38,56,58,31.7,33.05,1018.12,1,0
2022-11-02 15:17:41,1007,48,-21,-1,2,-14,38,56,58,31.7,33.05,1018.12,1,0
2022-11-02 15:17:41,1007,48,-21,-1,2,-14,38,56,58,31.7,33.05,1018.12,1,0
2022-11-02 15:17:41,981,156,-9,2,7,-6,39,57,54,31.7,33.05,1018.12,1,0
2022-11-02 15:17:41,981,156,-9,2,7,-6,39,57,54,31.7,33.05,1018.12,1,0
2022-11-02 15:17:41,981,156,-9,2,7,-6,39,57,54,31.7,33.05,1018.12,1,0
2022-11-02 15:17:42,1024,80,3,7,4,0,36,58,54,31.7,33.05,1018.12,1,0
2022-11-02 15:17:42,1024,80,3,7,4,0,36,58,54,31.7,33.05,1018.12,1,0
2022-11-02 15:17:42,1024,80,3,7,4,0,36,58,54,31.7,33.05,1018.12,1,0
2022-11-02 15:17:42,1013,78,-11,-3,2,9,37,57,55,31.7,33.05,1018.12,1,0
2022-11-02 15:17:42,1013,78,-11,-3,2,9,37,57,55,31.7,33.05,1018.12,1,0
2022-11-02 15:17:42,1013,78,-11,-3,2,9,37,57,55,31.7,33.05,1018.12,1,0
2022-11-02 15:17:42,1030,83,-5,-12,0,11,36,57,53,31.7,33.05,1018.12,1,0
2022-11-02 15:17:42,1030,83,-5,-12,0,11,36,57,53,31.7,33.05,1018.12,1,0
2022-11-02 15:17:42,1030,83,-5,-12,0,11,36,57,53,31.7,33.05,1018.12,1,0
2022-11-02 15:17:42,1016,95,-21,-35,-5,6,38,57,60,31.7,33.05,1018.12,1,0
2022-11-02 15:17:42,1016,95,-21,-35,-5,6,38,57,60,31.7,33.05,1018.12,1,0
2022-11-02 15:17:42,1016,95,-21,-35,-5,6,38,57,60,31.7,33.05,1018.12,1,0
2022-11-02 15:17:42,1091,119,-21,-9,6,-10,39,54,57,31.7,33.05,1018.12,1,0
2022-11-02 15:17:42,1091,119,-21,-9,6,-10,39,54,57,31.7,33.05,1018.12,1,0
2022-11-02 15:17:42,1091,119,-21,-9,6,-10,39,54,57,31.7,33.05,1018.12,1,0
2022-11-02 15:17:42,1040,-126,62,-12,-3,3,35,58,57,31.7,33.05,1018.12,1,0
2022-11-02 15:17:42,1040,-126,62,-12,-3,3,35,58,57,31.7,33.05,1018.12,1,0
2022-11-02 15:17:42,1040,-126,62,-12,-3,3,35,58,57,31.7,33.05,1018.12,1,0
2022-11-02 15:17:42,966,-25,5,0,-8,5,36,58,58,31.7,33.08,1018.12,1,0
2022-11-02 15:17:42,966,-25,5,0,-8,5,36,58,58,31.7,33.08,1018.12,1,0
2022-11-02 15:17:42,966,-25,5,0,-8,5,36,58,58,31.7,33.08,1018.12,1,0
2022-11-02 15:17:42,1013,-103,-23,2,-11,-1,35,57,60,31.7,33.08,1018.12,1,0
2022-11-02 15:17:42,1013,-103,-23,2,-11,-1,35,57,60,31.7,33.08,1018.12,1,0
2022-11-02 15:17:42,1013,-103,-23,2,-11,-1,35,57,60,31.7,33.08,1018.12,1,0
2022-11-02 15:17:42,1059,35,-80,17,-10,-2,33,59,59,31.7,33.08,1018.12,1,0
2022-11-02 15:17:42,1059,35,-80,17,-10,-2,33,59,59,31.7,33.08,1018.12,1,0
2022-11-02 15:17:42,1059,35,-80,17,-10,-2,33,59,59,31.7,33.08,1018.12,1,0
2022-11-02 15:17:42,987,0,-109,26,-5,2,32,56,58,31.7,33.08,1018.12,1,0
2022-11-02 15:17:42,987,0,-109,26,-5,2,32,56,58,31.7,33.08,1018.12,1,0
2022-11-02 15:17:42,987,0,-109,26,-5,2,32,56,58,31.7,33.08,1018.12,1,0
2022-11-02 15:17:43,954,11,-122,32,3,0,34,59,57,31.7,33.08,1018.12,1,0
2022-11-02 15:17:43,954,11,-122,32,3,0,34,59,57,31.7,33.08,1018.12,1,0
2022-11-02 15:17:43,954,11,-122,32,3,0,34,59,57,31.7,33.08,1018.12,1,0
2022-11-02 15:17:43,995,27,-115,29,8,-4,33,59,52,31.7,33.08,1018.12,1,0
2022-11-02 15:17:43,995,27,-115,29,8,-4,33,59,52,31.7,33.08,1018.12,1,0
2022-11-02 15:17:43,995,27,-115,29,8,-4,33,59,52,31.7,33.08,1018.12,1,0
2022-11-02 15:17:43,966,-9,-95,40,5,-8,32,59,54,31.7,33.08,1018.12,1,0
2022-11-02 15:17:43,966,-9,-95,40,5,-8,32,59,54,31.7,33.08,1018.12,1,0
2022-11-02 15:17:43,966,-9,-95,40,5,-8,32,59,54,31.7,33.08,1018.12,1,0
2022-11-02 15:17:43,1122,132,-193,48,-6,-15,31,59,50,31.7,33.08,1018.12,1,0
2022-11-02 15:17:43,1122,132,-193,48,-6,-15,31,59,50,31.7,33.08,1018.12,1,0
2022-11-02 15:17:43,1122,132,-193,48,-6,-15,31,59,50,31.7,33.08,1018.12,1,0
2022-11-02 15:17:43,1184,-27,44,46,-1,2,29,60,45,31.7,33.08,1018.12,1,0
2022-11-02 15:17:43,1184,-27,44,46,-1,2,29,60,45,31.7,33.08,1018.12,1,0
2022-11-02 15:17:43,1184,-27,44,46,-1,2,29,60,45,31.7,33.08,1018.12,1,0
2022-11-02 15:17:43,933,40,-25,31,-9,-2,24,62,42,31.7,33.08,1018.12,1,0
2022-11-02 15:17:43,933,40,-25,31,-9,-2,24,62,42,31.7,33.08,1018.12,1,0
2022-11-02 15:17:43,933,40,-25,31,-9,-2,24,62,42,31.7,33.08,1018.12,1,0
2022-11-02 15:17:43,989,31,101,45,12,-7,26,61,39,31.7,33.09,1018.13,1,0
2022-11-02 15:17:43,989,31,101,45,12,-7,26,61,39,31.7,33.09,1018.13,1,0
2022-11-02 15:17:43,989,31,101,45,12,-7,26,61,39,31.7,33.09,1018.13,1,0
2022-11-02 15:17:43,1075,93,9,34,1,-1,25,60,32,31.7,33.09,1018.13,1,0
2022-11-02 15:17:43,1075,93,9,34,1,-1,25,60,32,31.7,33.09,1018.13,1,0
2022-11-02 15:17:43,1075,93,9,34,1,-1,25,60,32,31.7,33.09,1018.13,1,0
2022-11-02 15:17:43,983,105,1,19,13,-7,23,58,37,31.7,33.09,1018.13,1,0
2022-11-02 15:17:43,983,105,1,19,13,-7,23,58,37,31.7,33.09,1018.13,1,0
2022-11-02 15:17:43,983,105,1,19,13,-7,23,58,37,31.7,33.09,1018.13,1,0
2022-11-02 15:17:43,997,167,-13,25,6,-2,23,57,28,31.7,33.09,1018.13,1,0
2022-11-02 15:17:43,997,167,-13,25,6,-2,23,57,28,31.7,33.09,1018.13,1,0
2022-11-02 15:17:43,997,167,-13,25,6,-2,23,57,28,31.7,33.09,1018.13,1,0
2022-11-02 15:17:44,1011,128,1,25,5,3,22,58,28,31.7,33.09,1018.13,1,0
2022-11-02 15:17:44,1011,128,1,25,5,3,22,58,28,31.7,33.09,1018.13,1,0
2022-11-02 15:17:44,1011,128,1,25,5,3,22,58,28,31.7,33.09,1018.13,1,0
2022-11-02 15:17:44,1001,101,-23,13,0,12,22,53,24,31.7,33.09,1018.13,1,0
2022-11-02 15:17:44,1001,101,-23,13,0,12,22,53,24,31.7,33.09,1018.13,1,0
2022-11-02 15:17:44,1001,101,-23,13,0,12,22,53,24,31.7,33.09,1018.13,1,0
2022-11-02 15:17:44,1022,111,-19,-5,-1,13,21,59,27,31.7,33.09,1018.13,1,0
2022-11-02 15:17:44,1022,111,-19,-5,-1,13,21,59,27,31.7,33.09,1018.13,1,0
2022-11-02 15:17:44,1022,111,-19,-5,-1,13,21,59,27,31.7,33.09,1018.13,1,0
2022-11-02 15:17:44,1059,3,-9,-18,2,-3,22,54,27,31.7,33.09,1018.13,1,0
2022-11-02 15:17:44,1059,3,-9,-18,2,-3,22,54,27,31.7,33.09,1018.13,1,0
2022-11-02 15:17:44,1059,3,-9,-18,2,-3,22,54,27,31.7,33.09,1018.13,1,0
2022-11-02 15:17:44,1130,-37,187,9,9,-8,21,55,30,31.7,33.09,1018.13,1,0
2022-11-02 15:17:44,1130,-37,187,9,9,-8,21,55,30,31.7,33.09,1018.13,1,0
2022-11-02 15:17:44,1130,-37,187,9,9,-8,21,55,30,31.7,33.09,1018.13,1,0
