Time,Ax,Ay,Az,Gx,Gy,Gz,Mx,My,Mz,Temp,Humidity,Pressure,Mic,Light
2022-11-02 15:19:04,1022,31,-44,1,2,0,28,63,47,31.8,33.5,1018.12,1,0
2022-11-02 15:19:04,1022,31,-44,1,2,0,28,63,47,31.8,33.5,1018.12,1,0
2022-11-02 15:19:04,1022,31,-44,1,2,0,28,63,47,31.8,33.5,1018.12,1,0
2022-11-02 15:19:04,1022,31,-44,1,2,0,28,63,47,31.8,33.5,1018.12,1,0
2022-11-02 15:19:04,1005,7,-25,0,1,2,31,64,51,31.8,33.47,1018.08,1,0
2022-11-02 15:19:04,1005,7,-25,0,1,2,31,64,51,31.8,33.47,1018.08,1,0
2022-11-02 15:19:04,1005,7,-25,0,1,2,31,64,51,31.8,33.47,1018.08,1,0
2022-11-02 15:19:04,1005,7,-25,0,1,2,31,64,51,31.8,33.47,1018.08,1,0
2022-11-02 15:19:04,1015,15,-1,-18,6,6,29,65,47,31.8,33.47,1018.08,1,0
2022-11-02 15:19:04,1015,15,-1,-18,6,6,29,65,47,31.8,33.47,1018.08,1,0
2022-11-02 15:19:04,1015,15,-1,-18,6,6,29,65,47,31.8,33.47,1018.08,1,0
2022-11-02 15:19:04,1015,15,-1,-18,6,6,29,65,47,31.8,33.47,1018.08,1,0
2022-11-02 15:19:04,1065,29,-21,-30,0,0,29,67,44,31.8,33.47,1018.08,1,0
2022-11-02 15:19:04,1065,29,-21,-30,0,0,29,67,44,31.8,33.47,1018.08,1,0
2022-11-02 15:19:04,1065,29,-21,-30,0,0,29,67,44,31.8,33.47,1018.08,1,0
2022-11-02 15:19:04,1065,29,-21,-30,0,0,29,67,44,31.8,33.47,1018.08,1,0
2022-11-02 15:19:04,1013,19,-7,-69,-4,6,29,65,48,31.8,33.47,1018.08,1,0
2022-11-02 15:19:04,1013,19,-7,-69,-4,6,29,65,48,31.8,33.47,1018.08,1,0
2022-11-02 15:19:04,1013,19,-7,-69,-4,6,29,65,48,31.8,33.47,1018.08,1,0
2022-11-02 15:19:04,1013,19,-7,-69,-4,6,29,65,48,31.8,33.47,1018.08,1,0
2022-11-02 15:19:04,1022,27,-19,-71,4,9,29,62,58,31.8,33.47,1018.08,1,0
2022-11-02 15:19:04,1022,27,-19,-71,4,9,29,62,58,31.8,33.47,1018.08,1,0
2022-11-02 15:19:04,1022,27,-19,-71,4,9,29,62,58,31.8,33.47,1018.08,1,0
2022-11-02 15:19:04,1022,27,-19,-71,4,9,29,62,58,31.8,33.47,1018.08,1,0
2022-11-02 15:19:05,1026,-142,-35,-79,8,11,31,60,66,31.8,33.47,1018.08,1,0
2022-11-02 15:19:05,1026,-142,-35,-79,8,11,31,60,66,31.8,33.47,1018.08,1,0
2022-11-02 15:19:05,1026,-142,-35,-79,8,11,31,60,66,31.8,33.47,1018.08,1,0
2022-11-02 15:19:05,1026,-142,-35,-79,8,11,31,60,66,31.8,33.47,1018.08,1,0
2022-11-02 15:19:05,1026,39,-109,-74,1,9,33,57,67,31.8,33.47,1018.08,1,0
2022-11-02 15:19:05,1026,39,-109,-74,1,9,33,57,67,31.8,33.47,1018.08,1,0
2022-11-02 15:19:05,1026,39,-109,-74,1,9,33,57,67,31.8,33.47,1018.08,1,0
2022-11-02 15:19:05,1026,39,-109,-74,1,9,33,57,67,31.8,33.47,1018.08,1,0
2022-11-02 15:19:05,989,5,-134,-58,-4,4,32,54,75,31.8,33.47,1018.08,1,0
2022-11-02 15:19:05,989,5,-134,-58,-4,4,32,54,75,31.8,33.47,1018.08,1,0
2022-11-02 15:19:05,989,5,-134,-58,-4,4,32,54,75,31.8,33.47,1018.08,1,0
2022-11-02 15:19:05,989,5,-134,-58,-4,4,32,54,75,31.8,33.47,1018.08,1,0
2022-11-02 15:19:05,968,15,-179,-36,1,0,33,54,78,31.8,33.47,1018.08,1,0
2022-11-02 15:19:05,968,15,-179,-36,1,0,33,54,78,31.8,33.47,1018.08,1,0
2022-11-02 15:19:05,968,15,-179,-36,1,0,33,54,78,31.8,33.47,1018.08,1,0
2022-11-02 15:19:05,968,15,-179,-36,1,0,33,54,78,31.8,33.47,1018.08,1,0
2022-11-02 15:19:05,1030,-31,-191,-28,3,-2,32,46,79,31.8,33.47,1018.08,1,0
2022-11-02 15:19:05,1030,-31,-191,-28,3,-2,32,46,79,31.8,33.47,1018.08,1,0
2022-11-02 15:19:05,1030,-31,-191,-28,3,-2,32,46,79,31.8,33.47,1018.08,1,0
2022-11-02 15:19:05,1030,-31,-191,-28,3,-2,32,46,79,31.8,33.47,1018.08,1,0
2022-11-02 15:19:05,1046,0,-199,-16,0,-5,34,48,83,31.8,33.47,1018.14,1,0
2022-11-02 15:19:05,1046,0,-199,-16,0,-5,34,48,83,31.8,33.47,1018.14,1,0
2022-11-02 15:19:05,1046,0,-199,-16,0,-5,34,48,83,31.8,33.47,1018.14,1,0
2022-11-02 15:19:05,1046,0,-199,-16,0,-5,34,48,83,31.8,33.47,1018.14,1,0
2022-11-02 15:19:05,1067,-154,-68,-10,-8,8,34,49,84,31.8,33.47,1018.14,1,0
2022-11-02 15:19:05,1067,-154,-68,-10,-8,8,34,49,84,31.8,33.47,1018.14,1,0
2022-11-02 15:19:05,1067,-154,-68,-10,-8,8,34,49,84,31.8,33.47,1018.14,1,0
2022-11-02 15:19:05,1067,-154,-68,-10,-8,8,34,49,84,31.8,33.47,1018.14,1,0
2022-11-02 15:19:05,989,-64,-44,-20,0,-3,34,44,87,31.8,33.47,1018.14,1,0
2022-11-02 15:19:05,989,-64,-44,-20,0,-3,34,44,87,31.8,33.47,1018.14,1,0
2022-11-02 15:19:05,989,-64,-44,-20,0,-3,34,44,87,31.8,33.47,1018.14,1,0
2022-11-02 15:19:05,989,-64,-44,-20,0,-3,34,44,87,31.8,33.47,1018.14,1,0
2022-11-02 15:19:05,974,-39,-39,-32,2,-4,32,42,89,31.8,33.47,1018.14,1,0
2022-11-02 15:19:05,974,-39,-39,-32,2,-4,32,42,89,31.8,33.47,1018.14,1,0
2022-11-02 15:19:05,974,-39,-39,-32,2,-4,32,42,89,31.8,33.47,1018.14,1,0
2022-11-02 15:19:05,974,-39,-39,-32,2,-4,32,42,89,31.8,33.47,1018.14,1,0
2022-11-02 15:19:05,1013,107,-11,-12,7,-9,32,40,86,31.8,33.47,1018.14,1,0
2022-11-02 15:19:05,1013,107,-11,-12,7,-9,32,40,86,31.8,33.47,1018.14,1,0
2022-11-02 15:19:05,1013,107,-11,-12,7,-9,32,40,86,31.8,33.47,1018.14,1,0
2022-11-02 15:19:05,1013,107,-11,-12,7,-9,32,40,86,31.8,33.47,1018.14,1,0
2022-11-02 15:19:06,1042,9,-9,-28,8,-14,33,39,87,31.8,33.47,1018.14,1,0
2022-11-02 15:19:06,1042,9,-9,-28,8,-14,33,39,87,31.8,33.47,1018.14,1,0
2022-11-02 15:19:06,1042,9,-9,-28,8,-14,33,39,87,31.8,33.47,1018.14,1,0
2022-11-02 15:19:06,1042,9,-9,-28,8,-14,33,39,87,31.8,33.47,1018.14,1,0
2022-11-02 15:19:06,983,152,-21,-26,11,-5,32,38,93,31.8,33.47,1018.14,1,0
2022-11-02 15:19:06,983,152,-21,-26,11,-5,32,38,93,31.8,33.47,1018.14,1,0
2022-11-02 15:19:06,983,152,-21,-26,11,-5,32,38,93,31.8,33.47,1018.14,1,0
2022-11-02 15:19:06,983,152,-21,-26,11,-5,32,38,93,31.8,33.47,1018.14,1,0
2022-11-02 15:19:06,1007,93,-29,-19,10,3,31,39,95,31.8,33.47,1018.14,1,0
2022-11-02 15:19:06,1007,93,-29,-19,10,3,31,39,95,31.8,33.47,1018.14,1,0
2022-11-02 15:19:06,1007,93,-29,-19,10,3,31,39,95,31.8,33.47,1018.14,1,0
2022-11-02 15:19:06,1007,93,-29,-19,10,3,31,39,95,31.8,33.47,1018.14,1,0
2022-11-02 15:19:06,1001,113,-21,-20,5,12,32,37,92,31.8,33.47,1018.14,1,0
2022-11-02 15:19:06,1001,113,-21,-20,5,12,32,37,92,31.8,33.47,1018.14,1,0
2022-11-02 15:19:06,1001,113,-21,-20,5,12,32,37,92,31.8,33.47,1018.14,1,0
2022-11-02 15:19:06,1001,113,-21,-20,5,12,32,37,92,31.8,33.47,1018.14,1,0
2022-11-02 15:19:06,1028,105,-11,-22,2,14,29,33,97,31.8,33.47,1018.14,1,0
2022-11-02 15:19:06,1028,105,-11,-22,2,14,29,33,97,31.8,33.47,1018.14,1,0
2022-11-02 15:19:06,1028,105,-11,-22,2,14,29,33,97,31.8,33.47,1018.14,1,0
2022-11-02 15:19:06,1028,105,-11,-22,2,14,29,33,97,31.8,33.47,1018.14,1,0
2022-11-02 15:19:06,1112,15,-48,-36,-5,2,30,35,96,31.8,33.47,1018.11,1,0
2022-11-02 15:19:06,1112,15,-48,-36,-5,2,30,35,96,31.8,33.47,1018.11,1,0
2022-11-02 15:19:06,1112,15,-48,-36,-5,2,30,35,96,31.8,33.47,1018.11,1,0
2022-11-02 15:19:06,1112,15,-48,-36,-5,2,30,35,96,31.8,33.47,1018.11,1,0
2022-11-02 15:19:06,1147,31,54,-12,7,-7,33,27,96,31.8,33.47,1018.11,1,0
2022-11-02 15:19:06,1147,31,54,-12,7,-7,33,27,96,31.8,33.47,1018.11,1,0
2022-11-02 15:19:06,1147,31,54,-12,7,-7,33,27,96,31.8,33.47,1018.11,1,0
2022-11-02 15:19:06,1147,31,54,-12,7,-7,33,27,96,31.8,33.47,1018.11,1,0
2022-11-02 15:19:06,929,-9,31,-28,-8,5,29,27,99,31.8,33.47,1018.11,1,0
2022-11-02 15:19:06,929,-9,31,-28,-8,5,29,27,99,31.8,33.47,1018.11,1,0
2022-11-02 15:19:06,929,-9,31,-28,-8,5,29,27,99,31.8,33.47,1018.11,1,0
2022-11-02 15:19:06,929,-9,31,-28,-8,5,29,27,99,31.8,33.47,1018.11,1,0
2022-11-02 15:19:06,1030,-150,-19,-20,-1,1,32,26,98,31.8,33.47,1018.11,1,0
2022-11-02 15:19:06,1030,-150,-19,-20,-1,1,32,26,98,31.8,33.47,1018.11,1,0
2022-11-02 15:19:06,1030,-150,-19,-20,-1,1,32,26,98,31.8,33.47,1018.11,1,0
2022-11-02 15:19:06,1030,-150,-19,-20,-1,1,32,26,98,31.8,33.47,1018.11,1,0
2022-11-02 15:19:06,1026,35,-62,0,-12,2,32,23,101,31.8,33.47,1018.11,1,0
2022-11-02 15:19:06,1026,35,-62,0,-12,2,32,23,101,31.8,33.47,1018.11,1,0
2022-11-02 15:19:06,1026,35,-62,0,-12,2,32,23,101,31.8,33.47,1018.11,1,0
2022-11-02 15:19:06,1026,35,-62,0,-12,2,32,23,101,31.8,33.47,1018.11,1,0
2022-11-02 15:19:07,929,3,-119,15,-6,5,32,23,104,31.8,33.47,1018.11,1,0
2022-11-02 15:19:07,929,3,-119,15,-6,5,32,23,104,31.8,33.47,1018.11,1,0
2022-11-02 15:19:07,929,3,-119,15,-6,5,32,23,104,31.8,33.47,1018.11,1,0
2022-11-02 15:19:07,929,3,-119,15,-6,5,32,23,104,31.8,33.47,1018.11,1,0
2022-11-02 15:19:07,962,-9,-124,23,2,0,34,25,97,31.8,33.47,1018.11,1,0
2022-11-02 15:19:07,962,-9,-124,23,2,0,34,25,97,31.8,33.47,1018.11,1,0
2022-11-02 15:19:07,962,-9,-124,23,2,0,34,25,97,31.8,33.47,1018.11,1,0
2022-11-02 15:19:07,962,-9,-124,23,2,0,34,25,97,31.8,33.47,1018.11,1,0
2022-11-02 15:19:07,1005,17,-148,31,7,-7,32,27,99,31.8,33.47,1018.11,1,0
2022-11-02 15:19:07,1005,17,-148,31,7,-7,32,27,99,31.8,33.47,1018.11,1,0
2022-11-02 15:19:07,1005,17,-148,31,7,-7,32,27,99,31.8,33.47,1018.11,1,0
2022-11-02 15:19:07,1005,17,-148,31,7,-7,32,27,99,31.8,33.47,1018.11,1,0
2022-11-02 15:19:07,1013,-78,-124,26,7,-4,33,31,99,31.8,33.47,1018.11,1,0
2022-11-02 15:19:07,1013,-78,-124,26,7,-4,33,31,99,31.8,33.47,1018.11,1,0
2022-11-02 15:19:07,1013,-78,-124,26,7,-4,33,31,99,31.8,33.47,1018.11,1,0
2022-11-02 15:19:07,1013,-78,-124,26,7,-4,33,31,99,31.8,33.47,1018.11,1,0
2022-11-02 15:19:07,1206,60,-83,19,-10,-3,35,32,93,31.8,33.47,1018.11,1,0
2022-11-02 15:19:07,1206,60,-83,19,-10,-3,35,32,93,31.8,33.47,1018.11,1,0
2022-11-02 15:19:07,1206,60,-83,19,-10,-3,35,32,93,31.8,33.47,1018.11,1,0
2022-11-02 15:19:07,1206,60,-83,19,-10,-3,35,32,93,31.8,33.47,1018.11,1,0
2022-11-02 15:19:07,976,-165,-56,-16,-14,12,32,34,97,31.8,33.49,1018.14,1,0
2022-11-02 15:19:07,976,-165,-56,-16,-14,12,32,34,97,31.8,33.49,1018.14,1,0
2022-11-02 15:19:07,976,-165,-56,-16,-14,12,32,34,97,31.8,33.49,1018.14,1,0
2022-11-02 15:19:07,976,-165,-56,-16,-14,12,32,34,97,31.8,33.49,1018.14,1,0
2022-11-02 15:19:07,935,-42,40,1,9,-5,35,34,96,31.8,33.49,1018.14,1,0
2022-11-02 15:19:07,935,-42,40,1,9,-5,35,34,96,31.8,33.49,1018.14,1,0
2022-11-02 15:19:07,935,-42,40,1,9,-5,35,34,96,31.8,33.49,1018.14,1,0
2022-11-02 15:19:07,935,-42,40,1,9,-5,35,34,96,31.8,33.49,1018.14,1,0
2022-11-02 15:19:07,1050,74,72,0,1,-5,35,32,95,31.8,33.49,1018.14,1,0
2022-11-02 15:19:07,1050,74,72,0,1,-5,35,32,95,31.8,33.49,1018.14,1,0
2022-11-02 15:19:07,1050,74,72,0,1,-5,35,32,95,31.8,33.49,1018.14,1,0
2022-11-02 15:19:07,1050,74,72,0,1,-5,35,32,95,31.8,33.49,1018.14,1,0
2022-11-02 15:19:07,995,83,-13,-15,6,-15,38,35,97,31.8,33.49,1018.14,1,0
2022-11-02 15:19:07,995,83,-13,-15,6,-15,38,35,97,31.8,33.49,1018.14,1,0
2022-11-02 15:19:07,995,83,-13,-15,6,-15,38,35,97,31.8,33.49,1018.14,1,0
2022-11-02 15:19:07,995,83,-13,-15,6,-15,38,35,97,31.8,33.49,1018.14,1,0
2022-11-02 15:19:07,989,152,-21,-5,14,0,35,33,100,31.8,33.49,1018.14,1,0
2022-11-02 15:19:07,989,152,-21,-5,14,0,35,33,100,31.8,33.49,1018.14,1,0
2022-11-02 15:19:07,989,152,-21,-5,14,0,35,33,100,31.8,33.49,1018.14,1,0
2022-11-02 15:19:07,989,152,-21,-5,14,0,35,33,100,31.8,33.49,1018.14,1,0
2022-11-02 15:19:08,1009,78,1,-3,7,0,35,34,94,31.8,33.49,1018.14,1,0
2022-11-02 15:19:08,1009,78,1,-3,7,0,35,34,94,31.8,33.49,1018.14,1,0
2022-11-02 15:19:08,1009,78,1,-3,7,0,35,34,94,31.8,33.49,1018.14,1,0
2022-11-02 15:19:08,1009,78,1,-3,7,0,35,34,94,31.8,33.49,1018.14,1,0
2022-11-02 15:19:08,999,66,-21,-20,0,13,35,36,96,31.8,33.49,1018.14,1,0
2022-11-02 15:19:08,999,66,-21,-20,0,13,35,36,96,31.8,33.49,1018.14,1,0
2022-11-02 15:19:08,999,66,-21,-20,0,13,35,36,96,31.8,33.49,1018.14,1,0
2022-11-02 15:19:08,999,66,-21,-20,0,13,35,36,96,31.8,33.49,1018.14,1,0
2022-11-02 15:19:08,1013,144,-19,-29,-1,7,37,32,99,31.8,33.49,1018.14,1,0
2022-11-02 15:19:08,1013,144,-19,-29,-1,7,37,32,99,31.8,33.49,1018.14,1,0
2022-11-02 15:19:08,1013,144,-19,-29,-1,7,37,32,99,31.8,33.49,1018.14,1,0
2022-11-02 15:19:08,1013,144,-19,-29,-1,7,37,32,99,31.8,33.49,1018.14,1,0
2022-11-02 15:19:08,1294,201,37,-14,4,-7,35,28,100,31.8,33.49,1018.14,1,0
2022-11-02 15:19:08,1294,201,37,-14,4,-7,35,28,100,31.8,33.49,1018.14,1,0
2022-11-02 15:19:08,1294,201,37,-14,4,-7,35,28,100,31.8,33.49,1018.14,1,0
2022-11-02 15:19:08,1294,201,37,-14,4,-7,35,28,100,31.8,33.49,1018.14,1,0
2022-11-02 15:19:08,808,-83,25,-6,-13,0,37,24,97,31.8,33.49,1018.14,1,0
2022-11-02 15:19:08,808,-83,25,-6,-13,0,37,24,97,31.8,33.49,1018.14,1,0
2022-11-02 15:19:08,808,-83,25,-6,-13,0,37,24,97,31.8,33.49,1018.14,1,0
2022-11-02 15:19:08,808,-83,25,-6,-13,0,37,24,97,31.8,33.49,1018.14,1,0
2022-11-02 15:19:08,1097,-99,-23,-8,0,1,40,26,99,31.8,33.47,1018.04,1,0
2022-11-02 15:19:08,1097,-99,-23,-8,0,1,40,26,99,31.8,33.47,1018.04,1,0
2022-11-02 15:19:08,1097,-99,-23,-8,0,1,40,26,99,31.8,33.47,1018.04,1,0
2022-11-02 15:19:08,1097,-99,-23,-8,0,1,40,26,99,31.8,33.47,1018.04,1,0
2022-11-02 15:19:08,1009,-7,-66,18,-17,1,40,24,95,31.8,33.47,1018.04,1,0
2022-11-02 15:19:08,1009,-7,-66,18,-17,1,40,24,95,31.8,33.47,1018.04,1,0
2022-11-02 15:19:08,1009,-7,-66,18,-17,1,40,24,95,31.8,33.47,1018.04,1,0
2022-11-02 15:19:08,1009,-7,-66,18,-17,1,40,24,95,31.8,33.47,1018.04,1,0
2022-11-02 15:19:08,972,-46,-87,34,-7,5,39,25,94,31.8,33.47,1018.04,1,0
2022-11-02 15:19:08,972,-46,-87,34,-7,5,39,25,94,31.8,33.47,1018.04,1,0
2022-11-02 15:19:08,972,-46,-87,34,-7,5,39,25,94,31.8,33.47,1018.04,1,0
2022-11-02 15:19:08,972,-46,-87,34,-7,5,39,25,94,31.8,33.47,1018.04,1,0
2022-11-02 15:19:08,952,-64,-93,23,5,1,40,26,92,31.8,33.47,1018.04,1,0
2022-11-02 15:19:08,952,-64,-93,23,5,1,40,26,92,31.8,33.47,1018.04,1,0
2022-11-02 15:19:08,952,-64,-93,23,5,1,40,26,92,31.8,33.47,1018.04,1,0
2022-11-02 15:19:08,952,-64,-93,23,5,1,40,26,92,31.8,33.47,1018.04,1,0
2022-11-02 15:19:08,1005,-33,-93,25,11,-3,40,28,92,31.8,33.47,1018.04,1,0
2022-11-02 15:19:08,1005,-33,-93,25,11,-3,40,28,92,31.8,33.47,1018.04,1,0
2022-11-02 15:19:08,1005,-33,-93,25,11,-3,40,28,92,31.8,33.47,1018.04,1,0
2022-11-02 15:19:08,1005,-33,-93,25,11,-3,40,28,92,31.8,33.47,1018.04,1,0
2022-11-02 15:19:09,1050,56,-121,31,8,-4,39,29,94,31.8,33.47,1018.04,1,0
2022-11-02 15:19:09,1050,56,-121,31,8,-4,39,29,94,31.8,33.47,1018.04,1,0
2022-11-02 15:19:09,1050,56,-121,31,8,-4,39,29,94,31.8,33.47,1018.04,1,0
2022-11-02 15:19:09,1050,56,-121,31,8,-4,39,29,94,31.8,33.47,1018.04,1,0
2022-11-02 15:19:09,1003,15,-130,51,-2,-8,39,29,94,31.8,33.47,1018.04,1,0
2022-11-02 15:19:09,1003,15,-130,51,-2,-8,39,29,94,31.8,33.47,1018.04,1,0
2022-11-02 15:19:09,1003,15,-130,51,-2,-8,39,29,94,31.8,33.47,1018.04,1,0
2022-11-02 15:19:09,1003,15,-130,51,-2,-8,39,29,94,31.8,33.47,1018.04,1,0
2022-11-02 15:19:09,1284,-150,72,28,5,7,40,35,93,31.8,33.47,1018.04,1,0
2022-11-02 15:19:09,1284,-150,72,28,5,7,40,35,93,31.8,33.47,1018.04,1,0
2022-11-02 15:19:09,1284,-150,72,28,5,7,40,35,93,31.8,33.47,1018.04,1,0
2022-11-02 15:19:09,1284,-150,72,28,5,7,40,35,93,31.8,33.47,1018.04,1,0
2022-11-02 15:19:09,895,78,-74,24,-5,-8,43,37,87,31.8,33.47,1018.04,1,0
2022-11-02 15:19:09,895,78,-74,24,-5,-8,43,37,87,31.8,33.47,1018.04,1,0
2022-11-02 15:19:09,895,78,-74,24,-5,-8,43,37,87,31.8,33.47,1018.04,1,0
2022-11-02 15:19:09,895,78,-74,24,-5,-8,43,37,87,31.8,33.47,1018.04,1,0
2022-11-02 15:19:09,981,-97,62,14,0,-1,40,38,82,31.8,33.47,1018.04,1,0
2022-11-02 15:19:09,981,-97,62,14,0,-1,40,38,82,31.8,33.47,1018.04,1,0
2022-11-02 15:19:09,981,-97,62,14,0,-1,40,38,82,31.8,33.47,1018.04,1,0
2022-11-02 15:19:09,981,-97,62,14,0,-1,40,38,82,31.8,33.47,1018.04,1,0
2022-11-02 15:19:09,1063,42,83,4,1,-2,41,40,82,31.8,33.49,1018.11,1,0
2022-11-02 15:19:09,1063,42,83,4,1,-2,41,40,82,31.8,33.49,1018.11,1,0
2022-11-02 15:19:09,1063,42,83,4,1,-2,41,40,82,31.8,33.49,1018.11,1,0
2022-11-02 15:19:09,1063,42,83,4,1,-2,41,40,82,31.8,33.49,1018.11,1,0
2022-11-02 15:19:09,989,85,-21,-14,2,-12,41,41,81,31.8,33.49,1018.11,1,0
2022-11-02 15:19:09,989,85,-21,-14,2,-12,41,41,81,31.8,33.49,1018.11,1,0
2022-11-02 15:19:09,989,85,-21,-14,2,-12,41,41,81,31.8,33.49,1018.11,1,0
2022-11-02 15:19:09,989,85,-21,-14,2,-12,41,41,81,31.8,33.49,1018.11,1,0
2022-11-02 15:19:09,1001,150,-21,-2,7,0,42,40,80,31.8,33.49,1018.11,1,0
2022-11-02 15:19:09,1001,150,-21,-2,7,0,42,40,80,31.8,33.49,1018.11,1,0
2022-11-02 15:19:09,1001,150,-21,-2,7,0,42,40,80,31.8,33.49,1018.11,1,0
2022-11-02 15:19:09,1001,150,-21,-2,7,0,42,40,80,31.8,33.49,1018.11,1,0
2022-11-02 15:19:09,1018,78,-17,-7,3,1,41,39,83,31.8,33.49,1018.11,1,0
2022-11-02 15:19:09,1018,78,-17,-7,3,1,41,39,83,31.8,33.49,1018.11,1,0
2022-11-02 15:19:09,1018,78,-17,-7,3,1,41,39,83,31.8,33.49,1018.11,1,0
2022-11-02 15:19:09,1018,78,-17,-7,3,1,41,39,83,31.8,33.49,1018.11,1,0
2022-11-02 15:19:09,1003,97,-23,-18,0,9,41,37,84,31.8,33.49,1018.11,1,0
2022-11-02 15:19:09,1003,97,-23,-18,0,9,41,37,84,31.8,33.49,1018.11,1,0
2022-11-02 15:19:09,1003,97,-23,-18,0,9,41,37,84,31.8,33.49,1018.11,1,0
2022-11-02 15:19:09,1003,97,-23,-18,0,9,41,37,84,31.8,33.49,1018.11,1,0
2022-11-02 15:19:10,1011,64,-23,-27,-2,6,41,37,82,31.8,33.49,1018.11,1,0
2022-11-02 15:19:10,1011,64,-23,-27,-2,6,41,37,82,31.8,33.49,1018.11,1,0
2022-11-02 15:19:10,1011,64,-23,-27,-2,6,41,37,82,31.8,33.49,1018.11,1,0
2022-11-02 15:19:10,1011,64,-23,-27,-2,6,41,37,82,31.8,33.49,1018.11,1,0
2022-11-02 15:19:10,1186,40,-74,-40,0,1,41,34,78,31.8,33.49,1018.11,1,0
2022-11-02 15:19:10,1186,40,-74,-40,0,1,41,34,78,31.8,33.49,1018.11,1,0
2022-11-02 15:19:10,1186,40,-74,-40,0,1,41,34,78,31.8,33.49,1018.11,1,0
2022-11-02 15:19:10,1186,40,-74,-40,0,1,41,34,78,31.8,33.49,1018.11,1,0
2022-11-02 15:19:10,1057,-29,130,-16,8,-6,39,32,84,31.8,33.49,1018.11,1,0
2022-11-02 15:19:10,1057,-29,130,-16,8,-6,39,32,84,31.8,33.49,1018.11,1,0
2022-11-02 15:19:10,1057,-29,130,-16,8,-6,39,32,84,31.8,33.49,1018.11,1,0
2022-11-02 15:19:10,1057,-29,130,-16,8,-6,39,32,84,31.8,33.49,1018.11,1,0
2022-11-02 15:19:10,948,99,-21,-20,-9,3,41,33,84,31.8,33.49,1018.11,1,0
2022-11-02 15:19:10,948,99,-21,-20,-9,3,41,33,84,31.8,33.49,1018.11,1,0
2022-11-02 15:19:10,948,99,-21,-20,-9,3,41,33,84,31.8,33.49,1018.11,1,0
2022-11-02 15:19:10,948,99,-21,-20,-9,3,41,33,84,31.8,33.49,1018.11,1,0
2022-11-02 15:19:10,1036,-93,-29,10,-4,0,41,31,88,31.8,33.49,1018.11,1,0
2022-11-02 15:19:10,1036,-93,-29,10,-4,0,41,31,88,31.8,33.49,1018.11,1,0
2022-11-02 15:19:10,1036,-93,-29,10,-4,0,41,31,88,31.8,33.49,1018.11,1,0
2022-11-02 15:19:10,1036,-93,-29,10,-4,0,41,31,88,31.8,33.49,1018.11,1,0
2022-11-02 15:19:10,1040,44,-87,40,-7,0,40,29,86,31.8,33.47,1018.1,1,0
2022-11-02 15:19:10,1040,44,-87,40,-7,0,40,29,86,31.8,33.47,1018.1,1,0
2022-11-02 15:19:10,1040,44,-87,40,-7,0,40,29,86,31.8,33.47,1018.1,1,0
2022-11-02 15:19:10,1040,44,-87,40,-7,0,40,29,86,31.8,33.47,1018.1,1,0
2022-11-02 15:19:10,964,-7,-62,44,-3,3,39,31,85,31.8,33.47,1018.1,1,0
2022-11-02 15:19:10,964,-7,-62,44,-3,3,39,31,85,31.8,33.47,1018.1,1,0
2022-11-02 15:19:10,964,-7,-62,44,-3,3,39,31,85,31.8,33.47,1018.1,1,0
2022-11-02 15:19:10,964,-7,-62,44,-3,3,39,31,85,31.8,33.47,1018.1,1,0
2022-11-02 15:19:10,970,54,-89,56,0,-2,42,33,84,31.8,33.47,1018.1,1,0
2022-11-02 15:19:10,970,54,-89,56,0,-2,42,33,84,31.8,33.47,1018.1,1,0
2022-11-02 15:19:10,970,54,-89,56,0,-2,42,33,84,31.8,33.47,1018.1,1,0
2022-11-02 15:19:10,970,54,-89,56,0,-2,42,33,84,31.8,33.47,1018.1,1,0
2022-11-02 15:19:10,999,-29,-76,59,8,-5,39,38,79,31.8,33.47,1018.1,1,0
2022-11-02 15:19:10,999,-29,-76,59,8,-5,39,38,79,31.8,33.47,1018.1,1,0
2022-11-02 15:19:10,999,-29,-76,59,8,-5,39,38,79,31.8,33.47,1018.1,1,0
2022-11-02 15:19:10,999,-29,-76,59,8,-5,39,38,79,31.8,33.47,1018.1,1,0
2022-11-02 15:19:10,1011,-21,-85,48,2,-6,43,40,74,31.8,33.47,1018.1,1,0
2022-11-02 15:19:10,1011,-21,-85,48,2,-6,43,40,74,31.8,33.47,1018.1,1,0
2022-11-02 15:19:10,1011,-21,-85,48,2,-6,43,40,74,31.8,33.47,1018.1,1,0
2022-11-02 15:19:10,1011,-21,-85,48,2,-6,43,40,74,31.8,33.47,1018.1,1,0
2022-11-02 15:19:11,1260,40,54,56,7,0,43,40,80,31.8,33.47,1018.1,1,0
2022-11-02 15:19:11,1260,40,54,56,7,0,43,40,80,31.8,33.47,1018.1,1,0
2022-11-02 15:19:11,1260,40,54,56,7,0,43,40,80,31.8,33.47,1018.1,1,0
2022-11-02 15:19:11,1260,40,54,56,7,0,43,40,80,31.8,33.47,1018.1,1,0
2022-11-02 15:19:11,876,95,-44,42,-5,-8,40,44,70,31.8,33.47,1018.1,1,0
2022-11-02 15:19:11,876,95,-44,42,-5,-8,40,44,70,31.8,33.47,1018.1,1,0
2022-11-02 15:19:11,876,95,-44,42,-5,-8,40,44,70,31.8,33.47,1018.1,1,0
2022-11-02 15:19:11,876,95,-44,42,-5,-8,40,44,70,31.8,33.47,1018.1,1,0
2022-11-02 15:19:11,989,52,163,71,7,0,37,46,70,31.8,33.47,1018.1,1,0
2022-11-02 15:19:11,989,52,163,71,7,0,37,46,70,31.8,33.47,1018.1,1,0
2022-11-02 15:19:11,989,52,163,71,7,0,37,46,70,31.8,33.47,1018.1,1,0
2022-11-02 15:19:11,989,52,163,71,7,0,37,46,70,31.8,33.47,1018.1,1,0
2022-11-02 15:19:11,1091,-19,70,59,2,-4,37,47,66,31.8,33.47,1018.1,1,0
2022-11-02 15:19:11,1091,-19,70,59,2,-4,37,47,66,31.8,33.47,1018.1,1,0
2022-11-02 15:19:11,1091,-19,70,59,2,-4,37,47,66,31.8,33.47,1018.1,1,0
2022-11-02 15:19:11,1091,-19,70,59,2,-4,37,47,66,31.8,33.47,1018.1,1,0
2022-11-02 15:19:11,972,144,3,37,4,-14,36,50,63,31.8,33.47,1018.1,1,0
2022-11-02 15:19:11,972,144,3,37,4,-14,36,50,63,31.8,33.47,1018.1,1,0
2022-11-02 15:19:11,972,144,3,37,4,-14,36,50,63,31.8,33.47,1018.1,1,0
2022-11-02 15:19:11,972,144,3,37,4,-14,36,50,63,31.8,33.47,1018.1,1,0
2022-11-02 15:19:11,1016,169,17,41,7,-3,34,52,61,31.8,33.49,1018.09,1,0
2022-11-02 15:19:11,1016,169,17,41,7,-3,34,52,61,31.8,33.49,1018.09,1,0
2022-11-02 15:19:11,1016,169,17,41,7,-3,34,52,61,31.8,33.49,1018.09,1,0
2022-11-02 15:19:11,1016,169,17,41,7,-3,34,52,61,31.8,33.49,1018.09,1,0
2022-11-02 15:19:11,1003,122,25,31,6,5,34,55,56,31.8,33.49,1018.09,1,0
2022-11-02 15:19:11,1003,122,25,31,6,5,34,55,56,31.8,33.49,1018.09,1,0
2022-11-02 15:19:11,1003,122,25,31,6,5,34,55,56,31.8,33.49,1018.09,1,0
2022-11-02 15:19:11,1003,122,25,31,6,5,34,55,56,31.8,33.49,1018.09,1,0
2022-11-02 15:19:11,1005,91,-3,9,-1,13,33,55,54,31.8,33.49,1018.09,1,0
2022-11-02 15:19:11,1005,91,-3,9,-1,13,33,55,54,31.8,33.49,1018.09,1,0
2022-11-02 15:19:11,1005,91,-3,9,-1,13,33,55,54,31.8,33.49,1018.09,1,0
2022-11-02 15:19:11,1005,91,-3,9,-1,13,33,55,54,31.8,33.49,1018.09,1,0
2022-11-02 15:19:11,1009,167,17,-10,-7,3,35,55,57,31.8,33.49,1018.09,1,0
2022-11-02 15:19:11,1009,167,17,-10,-7,3,35,55,57,31.8,33.49,1018.09,1,0
2022-11-02 15:19:11,1009,167,17,-10,-7,3,35,55,57,31.8,33.49,1018.09,1,0
2022-11-02 15:19:11,1009,167,17,-10,-7,3,35,55,57,31.8,33.49,1018.09,1,0
2022-11-02 15:19:11,1098,173,58,8,7,-13,35,54,52,31.8,33.49,1018.09,1,0
2022-11-02 15:19:11,1098,173,58,8,7,-13,35,54,52,31.8,33.49,1018.09,1,0
2022-11-02 15:19:11,1098,173,58,8,7,-13,35,54,52,31.8,33.49,1018.09,1,0
2022-11-02 15:19:11,1098,173,58,8,7,-13,35,54,52,31.8,33.49,1018.09,1,0
2022-11-02 15:19:12,1024,11,23,9,-16,7,34,57,59,31.8,33.49,1018.09,1,0
2022-11-02 15:19:12,1024,11,23,9,-16,7,34,57,59,31.8,33.49,1018.09,1,0
2022-11-02 15:19:12,1024,11,23,9,-16,7,34,57,59,31.8,33.49,1018.09,1,0
2022-11-02 15:19:12,1024,11,23,9,-16,7,34,57,59,31.8,33.49,1018.09,1,0
2022-11-02 15:19:12,964,-80,-19,34,-12,12,32,57,51,31.8,33.49,1018.09,1,0
2022-11-02 15:19:12,964,-80,-19,34,-12,12,32,57,51,31.8,33.49,1018.09,1,0
2022-11-02 15:19:12,964,-80,-19,34,-12,12,32,57,51,31.8,33.49,1018.09,1,0
2022-11-02 15:19:12,964,-80,-19,34,-12,12,32,57,51,31.8,33.49,1018.09,1,0
2022-11-02 15:19:12,1016,1,-48,45,-10,5,33,57,52,31.8,33.49,1018.09,1,0
2022-11-02 15:19:12,1016,1,-48,45,-10,5,33,57,52,31.8,33.49,1018.09,1,0
2022-11-02 15:19:12,1016,1,-48,45,-10,5,33,57,52,31.8,33.49,1018.09,1,0
2022-11-02 15:19:12,1016,1,-48,45,-10,5,33,57,52,31.8,33.49,1018.09,1,0
2022-11-02 15:19:12,964,-93,-52,53,-5,1,33,56,48,31.8,33.49,1018.09,1,0
2022-11-02 15:19:12,964,-93,-52,53,-5,1,33,56,48,31.8,33.49,1018.09,1,0
2022-11-02 15:19:12,964,-93,-52,53,-5,1,33,56,48,31.8,33.49,1018.09,1,0
2022-11-02 15:19:12,964,-93,-52,53,-5,1,33,56,48,31.8,33.49,1018.09,1,0
2022-11-02 15:19:12,970,-50,-64,43,1,0,33,56,38,31.8,33.49,1018.09,1,0
2022-11-02 15:19:12,970,-50,-64,43,1,0,33,56,38,31.8,33.49,1018.09,1,0
2022-11-02 15:19:12,970,-50,-64,43,1,0,33,56,38,31.8,33.49,1018.09,1,0
2022-11-02 15:19:12,970,-50,-64,43,1,0,33,56,38,31.8,33.49,1018.09,1,0
2022-11-02 15:19:12,1007,-29,-54,41,7,-5,31,55,36,31.8,33.49,1018.09,1,0
2022-11-02 15:19:12,1007,-29,-54,41,7,-5,31,55,36,31.8,33.49,1018.09,1,0
2022-11-02 15:19:12,1007,-29,-54,41,7,-5,31,55,36,31.8,33.49,1018.09,1,0
2022-11-02 15:19:12,1007,-29,-54,41,7,-5,31,55,36,31.8,33.49,1018.09,1,0
2022-11-02 15:19:12,1016,3,-85,36,7,-5,27,54,37,31.8,33.53,1018.1,1,0
2022-11-02 15:19:12,1016,3,-85,36,7,-5,27,54,37,31.8,33.53,1018.1,1,0
2022-11-02 15:19:12,1016,3,-85,36,7,-5,27,54,37,31.8,33.53,1018.1,1,0
2022-11-02 15:19:12,1016,3,-85,36,7,-5,27,54,37,31.8,33.53,1018.1,1,0
2022-11-02 15:19:12,1030,124,-97,56,2,-13,29,53,28,31.8,33.53,1018.1,1,0
2022-11-02 15:19:12,1030,124,-97,56,2,-13,29,53,28,31.8,33.53,1018.1,1,0
2022-11-02 15:19:12,1030,124,-97,56,2,-13,29,53,28,31.8,33.53,1018.1,1,0
2022-11-02 15:19:12,1030,124,-97,56,2,-13,29,53,28,31.8,33.53,1018.1,1,0
2022-11-02 15:19:12,1153,-3,-21,67,0,-7,27,56,28,31.8,33.53,1018.1,1,0
2022-11-02 15:19:12,1153,-3,-21,67,0,-7,27,56,28,31.8,33.53,1018.1,1,0
2022-11-02 15:19:12,1153,-3,-21,67,0,-7,27,56,28,31.8,33.53,1018.1,1,0
2022-11-02 15:19:12,1153,-3,-21,67,0,-7,27,56,28,31.8,33.53,1018.1,1,0
2022-11-02 15:19:12,952,-40,-23,37,-6,-1,25,51,24,31.8,33.53,1018.1,1,0
2022-11-02 15:19:12,952,-40,-23,37,-6,-1,25,51,24,31.8,33.53,1018.1,1,0
2022-11-02 15:19:12,952,-40,-23,37,-6,-1,25,51,24,31.8,33.53,1018.1,1,0
2022-11-02 15:19:12,952,-40,-23,37,-6,-1,25,51,24,31.8,33.53,1018.1,1,0
2022-11-02 15:19:13,1030,-31,60,50,8,-3,25,50,18,31.8,33.53,1018.1,1,0
2022-11-02 15:19:13,1030,-31,60,50,8,-3,25,50,18,31.8,33.53,1018.1,1,0
2022-11-02 15:19:13,1030,-31,60,50,8,-3,25,50,18,31.8,33.53,1018.1,1,0
2022-11-02 15:19:13,1030,-31,60,50,8,-3,25,50,18,31.8,33.53,1018.1,1,0
2022-11-02 15:19:13,983,19,33,26,0,-2,24,48,19,31.8,33.53,1018.1,1,0
2022-11-02 15:19:13,983,19,33,26,0,-2,24,48,19,31.8,33.53,1018.1,1,0
2022-11-02 15:19:13,983,19,33,26,0,-2,24,48,19,31.8,33.53,1018.1,1,0
2022-11-02 15:19:13,983,19,33,26,0,-2,24,48,19,31.8,33.53,1018.1,1,0
2022-11-02 15:19:13,1015,37,70,28,7,-2,21,47,15,31.8,33.53,1018.1,1,0
2022-11-02 15:19:13,1015,37,70,28,7,-2,21,47,15,31.8,33.53,1018.1,1,0
2022-11-02 15:19:13,1015,37,70,28,7,-2,21,47,15,31.8,33.53,1018.1,1,0
2022-11-02 15:19:13,1015,37,70,28,7,-2,21,47,15,31.8,33.53,1018.1,1,0
2022-11-02 15:19:13,1013,99,7,-3,5,-11,21,45,15,31.8,33.53,1018.1,1,0
2022-11-02 15:19:13,1013,99,7,-3,5,-11,21,45,15,31.8,33.53,1018.1,1,0
2022-11-02 15:19:13,1013,99,7,-3,5,-11,21,45,15,31.8,33.53,1018.1,1,0
2022-11-02 15:19:13,1013,99,7,-3,5,-11,21,45,15,31.8,33.53,1018.1,1,0
2022-11-02 15:19:13,1018,117,7,4,8,0,18,45,13,31.8,33.53,1018.1,1,0
2022-11-02 15:19:13,1018,117,7,4,8,0,18,45,13,31.8,33.53,1018.1,1,0
2022-11-02 15:19:13,1018,117,7,4,8,0,18,45,13,31.8,33.53,1018.1,1,0
2022-11-02 15:19:13,1018,117,7,4,8,0,18,45,13,31.8,33.53,1018.1,1,0
2022-11-02 15:19:13,1016,97,1,5,4,2,21,46,11,31.8,33.53,1018.1,1,0
2022-11-02 15:19:13,1016,97,1,5,4,2,21,46,11,31.8,33.53,1018.1,1,0
2022-11-02 15:19:13,1016,97,1,5,4,2,21,46,11,31.8,33.53,1018.1,1,0
2022-11-02 15:19:13,1016,97,1,5,4,2,21,46,11,31.8,33.53,1018.1,1,0
2022-11-02 15:19:13,1024,124,23,0,2,6,20,48,17,31.8,33.12,1018.12,1,0
2022-11-02 15:19:13,1024,124,23,0,2,6,20,48,17,31.8,33.12,1018.12,1,0
2022-11-02 15:19:13,1024,124,23,0,2,6,20,48,17,31.8,33.12,1018.12,1,0
2022-11-02 15:19:13,1024,124,23,0,2,6,20,48,17,31.8,33.12,1018.12,1,0
2022-11-02 15:19:13,1001,124,-17,-4,-4,10,20,43,14,31.8,33.12,1018.12,1,0
2022-11-02 15:19:13,1001,124,-17,-4,-4,10,20,43,14,31.8,33.12,1018.12,1,0
2022-11-02 15:19:13,1001,124,-17,-4,-4,10,20,43,14,31.8,33.12,1018.12,1,0
2022-11-02 15:19:13,1001,124,-17,-4,-4,10,20,43,14,31.8,33.12,1018.12,1,0
2022-11-02 15:19:13,993,74,-21,-13,-4,10,20,44,13,31.8,33.12,1018.12,1,0
2022-11-02 15:19:13,993,74,-21,-13,-4,10,20,44,13,31.8,33.12,1018.12,1,0
2022-11-02 15:19:13,993,74,-21,-13,-4,10,20,44,13,31.8,33.12,1018.12,1,0
2022-11-02 15:19:13,993,74,-21,-13,-4,10,20,44,13,31.8,33.12,1018.12,1,0
2022-11-02 15:19:13,1102,9,-21,-37,-3,2,19,47,12,31.8,33.12,1018.12,1,0
2022-11-02 15:19:13,1102,9,-21,-37,-3,2,19,47,12,31.8,33.12,1018.12,1,0
2022-11-02 15:19:13,1102,9,-21,-37,-3,2,19,47,12,31.8,33.12,1018.12,1,0
2022-11-02 15:19:13,1102,9,-21,-37,-3,2,19,47,12,31.8,33.12,1018.12,1,0
2022-11-02 15:19:14,1110,23,107,1,13,-10,18,45,16,31.8,33.12,1018.12,1,0
2022-11-02 15:19:14,1110,23,107,1,13,-10,18,45,16,31.8,33.12,1018.12,1,0
2022-11-02 15:19:14,1110,23,107,1,13,-10,18,45,16,31.8,33.12,1018.12,1,0
2022-11-02 15:19:14,1110,23,107,1,13,-10,18,45,16,31.8,33.12,1018.12,1,0
2022-11-02 15:19:14,1013,66,19,-5,-8,7,20,50,16,31.8,33.12,1018.12,1,0
2022-11-02 15:19:14,1013,66,19,-5,-8,7,20,50,16,31.8,33.12,1018.12,1,0
2022-11-02 15:19:14,1013,66,19,-5,-8,7,20,50,16,31.8,33.12,1018.12,1,0
2022-11-02 15:19:14,1013,66,19,-5,-8,7,20,50,16,31.8,33.12,1018.12,1,0
2022-11-02 15:19:14,972,-140,-9,15,-2,9,17,49,21,31.8,33.12,1018.12,1,0
2022-11-02 15:19:14,972,-140,-9,15,-2,9,17,49,21,31.8,33.12,1018.12,1,0
2022-11-02 15:19:14,972,-140,-9,15,-2,9,17,49,21,31.8,33.12,1018.12,1,0
2022-11-02 15:19:14,972,-140,-9,15,-2,9,17,49,21,31.8,33.12,1018.12,1,0
2022-11-02 15:19:14,1079,-29,-68,13,-10,2,19,48,17,31.8,33.12,1018.12,1,0
2022-11-02 15:19:14,1079,-29,-68,13,-10,2,19,48,17,31.8,33.12,1018.12,1,0
2022-11-02 15:19:14,1079,-29,-68,13,-10,2,19,48,17,31.8,33.12,1018.12,1,0
2022-11-02 15:19:14,1079,-29,-68,13,-10,2,19,48,17,31.8,33.12,1018.12,1,0
2022-11-02 15:19:14,964,-74,-42,24,-5,3,17,45,18,31.8,33.12,1018.12,1,0
2022-11-02 15:19:14,964,-74,-42,24,-5,3,17,45,18,31.8,33.12,1018.12,1,0
2022-11-02 15:19:14,964,-74,-42,24,-5,3,17,45,18,31.8,33.12,1018.12,1,0
2022-11-02 15:19:14,964,-74,-42,24,-5,3,17,45,18,31.8,33.12,1018.12,1,0
2022-11-02 15:19:14,993,-54,-70,20,0,3,16,49,12,31.8,33.12,1018.12,1,0
2022-11-02 15:19:14,993,-54,-70,20,0,3,16,49,12,31.8,33.12,1018.12,1,0
2022-11-02 15:19:14,993,-54,-70,20,0,3,16,49,12,31.8,33.12,1018.12,1,0
2022-11-02 15:19:14,993,-54,-70,20,0,3,16,49,12,31.8,33.12,1018.12,1,0
2022-11-02 15:19:14,981,-31,-87,24,4,-1,18,43,13,31.8,33.35,1018.11,1,0
2022-11-02 15:19:14,981,-31,-87,24,4,-1,18,43,13,31.8,33.35,1018.11,1,0
2022-11-02 15:19:14,981,-31,-87,24,4,-1,18,43,13,31.8,33.35,1018.11,1,0
2022-11-02 15:19:14,981,-31,-87,24,4,-1,18,43,13,31.8,33.35,1018.11,1,0
2022-11-02 15:19:14,981,-37,-105,25,8,-1,16,41,11,31.8,33.35,1018.11,1,0
2022-11-02 15:19:14,981,-37,-105,25,8,-1,16,41,11,31.8,33.35,1018.11,1,0
2022-11-02 15:19:14,981,-37,-105,25,8,-1,16,41,11,31.8,33.35,1018.11,1,0
2022-11-02 15:19:14,981,-37,-105,25,8,-1,16,41,11,31.8,33.35,1018.11,1,0
2022-11-02 15:19:14,1013,-9,-97,23,6,-7,17,38,11,31.8,33.35,1018.11,1,0
2022-11-02 15:19:14,1013,-9,-97,23,6,-7,17,38,11,31.8,33.35,1018.11,1,0
2022-11-02 15:19:14,1013,-9,-97,23,6,-7,17,38,11,31.8,33.35,1018.11,1,0
2022-11-02 15:19:14,1013,-9,-97,23,6,-7,17,38,11,31.8,33.35,1018.11,1,0
2022-11-02 15:19:14,1200,33,-1,46,0,-9,16,39,6,31.8,33.35,1018.11,1,0
2022-11-02 15:19:14,1200,33,-1,46,0,-9,16,39,6,31.8,33.35,1018.11,1,0
2022-11-02 15:19:14,1200,33,-1,46,0,-9,16,39,6,31.8,33.35,1018.11,1,0
2022-11-02 15:19:14,1200,33,-1,46,0,-9,16,39,6,31.8,33.35,1018.11,1,0
2022-11-02 15:19:15,952,-42,-21,13,-8,-4,15,39,11,31.8,33.35,1018.11,1,0
2022-11-02 15:19:15,952,-42,-21,13,-8,-4,15,39,11,31.8,33.35,1018.11,1,0
2022-11-02 15:19:15,952,-42,-21,13,-8,-4,15,39,11,31.8,33.35,1018.11,1,0
2022-11-02 15:19:15,952,-42,-21,13,-8,-4,15,39,11,31.8,33.35,1018.11,1,0
2022-11-02 15:19:15,970,-3,119,35,7,-7,12,39,10,31.8,33.35,1018.11,1,0
2022-11-02 15:19:15,970,-3,119,35,7,-7,12,39,10,31.8,33.35,1018.11,1,0
2022-11-02 15:19:15,970,-3,119,35,7,-7,12,39,10,31.8,33.35,1018.11,1,0
2022-11-02 15:19:15,970,-3,119,35,7,-7,12,39,10,31.8,33.35,1018.11,1,0
2022-11-02 15:19:15,1044,44,93,9,-3,-10,14,37,9,31.8,33.35,1018.11,1,0
2022-11-02 15:19:15,1044,44,93,9,-3,-10,14,37,9,31.8,33.35,1018.11,1,0
2022-11-02 15:19:15,1044,44,93,9,-3,-10,14,37,9,31.8,33.35,1018.11,1,0
2022-11-02 15:19:15,1044,44,93,9,-3,-10,14,37,9,31.8,33.35,1018.11,1,0
2022-11-02 15:19:15,985,52,60,-4,4,-15,14,34,5,31.8,33.35,1018.11,1,0
2022-11-02 15:19:15,985,52,60,-4,4,-15,14,34,5,31.8,33.35,1018.11,1,0
2022-11-02 15:19:15,985,52,60,-4,4,-15,14,34,5,31.8,33.35,1018.11,1,0
2022-11-02 15:19:15,985,52,60,-4,4,-15,14,34,5,31.8,33.35,1018.11,1,0
2022-11-02 15:19:15,1016,119,54,-7,5,-2,12,35,6,31.8,33.35,1018.11,1,0
2022-11-02 15:19:15,1016,119,54,-7,5,-2,12,35,6,31.8,33.35,1018.11,1,0
2022-11-02 15:19:15,1016,119,54,-7,5,-2,12,35,6,31.8,33.35,1018.11,1,0
2022-11-02 15:19:15,1016,119,54,-7,5,-2,12,35,6,31.8,33.35,1018.11,1,0
2022-11-02 15:19:15,1030,83,44,-5,3,-2,13,37,7,31.8,33.35,1018.11,1,0
2022-11-02 15:19:15,1030,83,44,-5,3,-2,13,37,7,31.8,33.35,1018.11,1,0
2022-11-02 15:19:15,1030,83,44,-5,3,-2,13,37,7,31.8,33.35,1018.11,1,0
2022-11-02 15:19:15,1030,83,44,-5,3,-2,13,37,7,31.8,33.35,1018.11,1,0
2022-11-02 15:19:15,1013,119,17,-10,1,1,14,37,7,31.8,33.53,1018.12,1,0
2022-11-02 15:19:15,1013,119,17,-10,1,1,14,37,7,31.8,33.53,1018.12,1,0
2022-11-02 15:19:15,1013,119,17,-10,1,1,14,37,7,31.8,33.53,1018.12,1,0
2022-11-02 15:19:15,1013,119,17,-10,1,1,14,37,7,31.8,33.53,1018.12,1,0
2022-11-02 15:19:15,1013,130,-3,-14,-1,9,11,38,7,31.8,33.53,1018.12,1,0
2022-11-02 15:19:15,1013,130,-3,-14,-1,9,11,38,7,31.8,33.53,1018.12,1,0
2022-11-02 15:19:15,1013,130,-3,-14,-1,9,11,38,7,31.8,33.53,1018.12,1,0
2022-11-02 15:19:15,1013,130,-3,-14,-1,9,11,38,7,31.8,33.53,1018.12,1,0
2022-11-02 15:19:15,1024,117,-1,-12,-3,12,14,35,4,31.8,33.53,1018.12,1,0
2022-11-02 15:19:15,1024,117,-1,-12,-3,12,14,35,4,31.8,33.53,1018.12,1,0
2022-11-02 15:19:15,1024,117,-1,-12,-3,12,14,35,4,31.8,33.53,1018.12,1,0
2022-11-02 15:19:15,1024,117,-1,-12,-3,12,14,35,4,31.8,33.53,1018.12,1,0
2022-11-02 15:19:15,1007,83,-23,-14,-10,8,15,38,9,31.8,33.53,1018.12,1,0
2022-11-02 15:19:15,1007,83,-23,-14,-10,8,15,38,9,31.8,33.53,1018.12,1,0
2022-11-02 15:19:15,1007,83,-23,-14,-10,8,15,38,9,31.8,33.53,1018.12,1,0
2022-11-02 15:19:15,1007,83,-23,-14,-10,8,15,38,9,31.8,33.53,1018.12,1,0
2022-11-02 15:19:16,1102,56,-7,-24,-4,2,14,38,6,31.8,33.53,1018.12,1,0
2022-11-02 15:19:16,1102,56,-7,-24,-4,2,14,38,6,31.8,33.53,1018.12,1,0
2022-11-02 15:19:16,1102,56,-7,-24,-4,2,14,38,6,31.8,33.53,1018.12,1,0
2022-11-02 15:19:16,1102,56,-7,-24,-4,2,14,38,6,31.8,33.53,1018.12,1,0
2022-11-02 15:19:16,1018,-21,70,-5,-2,-1,15,41,9,31.8,33.53,1018.12,1,0
2022-11-02 15:19:16,1018,-21,70,-5,-2,-1,15,41,9,31.8,33.53,1018.12,1,0
2022-11-02 15:19:16,1018,-21,70,-5,-2,-1,15,41,9,31.8,33.53,1018.12,1,0
2022-11-02 15:19:16,1018,-21,70,-5,-2,-1,15,41,9,31.8,33.53,1018.12,1,0
2022-11-02 15:19:16,1005,56,-17,0,-3,11,17,43,10,31.8,33.53,1018.12,1,0
2022-11-02 15:19:16,1005,56,-17,0,-3,11,17,43,10,31.8,33.53,1018.12,1,0
2022-11-02 15:19:16,1005,56,-17,0,-3,11,17,43,10,31.8,33.53,1018.12,1,0
2022-11-02 15:19:16,1005,56,-17,0,-3,11,17,43,10,31.8,33.53,1018.12,1,0
2022-11-02 15:19:16,976,-95,31,8,-4,4,14,41,9,31.8,33.53,1018.12,1,0
2022-11-02 15:19:16,976,-95,31,8,-4,4,14,41,9,31.8,33.53,1018.12,1,0
2022-11-02 15:19:16,976,-95,31,8,-4,4,14,41,9,31.8,33.53,1018.12,1,0
2022-11-02 15:19:16,976,-95,31,8,-4,4,14,41,9,31.8,33.53,1018.12,1,0
2022-11-02 15:19:16,1087,1,-70,3,-7,1,15,39,10,31.8,33.53,1018.12,1,0
2022-11-02 15:19:16,1087,1,-70,3,-7,1,15,39,10,31.8,33.53,1018.12,1,0
2022-11-02 15:19:16,1087,1,-70,3,-7,1,15,39,10,31.8,33.53,1018.12,1,0
2022-11-02 15:19:16,1087,1,-70,3,-7,1,15,39,10,31.8,33.53,1018.12,1,0
2022-11-02 15:19:16,1013,-25,-68,34,-8,3,17,41,8,31.8,33.53,1018.12,1,0
2022-11-02 15:19:16,1013,-25,-68,34,-8,3,17,41,8,31.8,33.53,1018.12,1,0
2022-11-02 15:19:16,1013,-25,-68,34,-8,3,17,41,8,31.8,33.53,1018.12,1,0
2022-11-02 15:19:16,1013,-25,-68,34,-8,3,17,41,8,31.8,33.53,1018.12,1,0
2022-11-02 15:19:16,979,-52,-52,32,-4,5,13,37,8,31.8,33.51,1018.08,1,0
2022-11-02 15:19:16,979,-52,-52,32,-4,5,13,37,8,31.8,33.51,1018.08,1,0
2022-11-02 15:19:16,979,-52,-52,32,-4,5,13,37,8,31.8,33.51,1018.08,1,0
2022-11-02 15:19:16,979,-52,-52,32,-4,5,13,37,8,31.8,33.51,1018.08,1,0
2022-11-02 15:19:16,983,-78,-62,35,4,0,11,35,1,31.8,33.51,1018.08,1,0
2022-11-02 15:19:16,983,-78,-62,35,4,0,11,35,1,31.8,33.51,1018.08,1,0
2022-11-02 15:19:16,983,-78,-62,35,4,0,11,35,1,31.8,33.51,1018.08,1,0
2022-11-02 15:19:16,983,-78,-62,35,4,0,11,35,1,31.8,33.51,1018.08,1,0
2022-11-02 15:19:16,1040,-83,-23,26,9,-2,12,32,3,31.8,33.51,1018.08,1,0
2022-11-02 15:19:16,1040,-83,-23,26,9,-2,12,32,3,31.8,33.51,1018.08,1,0
2022-11-02 15:19:16,1040,-83,-23,26,9,-2,12,32,3,31.8,33.51,1018.08,1,0
2022-11-02 15:19:16,1040,-83,-23,26,9,-2,12,32,3,31.8,33.51,1018.08,1,0
2022-11-02 15:19:16,1036,42,-101,38,0,-5,14,28,6,31.8,33.51,1018.08,1,0
2022-11-02 15:19:16,1036,42,-101,38,0,-5,14,28,6,31.8,33.51,1018.08,1,0
2022-11-02 15:19:16,1036,42,-101,38,0,-5,14,28,6,31.8,33.51,1018.08,1,0
2022-11-02 15:19:16,1036,42,-101,38,0,-5,14,28,6,31.8,33.51,1018.08,1,0
2022-11-02 15:19:17,966,83,-119,68,-2,-11,14,28,6,31.8,33.51,1018.08,1,0
2022-11-02 15:19:17,966,83,-119,68,-2,-11,14,28,6,31.8,33.51,1018.08,1,0
2022-11-02 15:19:17,966,83,-119,68,-2,-11,14,28,6,31.8,33.51,1018.08,1,0
2022-11-02 15:19:17,966,83,-119,68,-2,-11,14,28,6,31.8,33.51,1018.08,1,0
2022-11-02 15:19:17,1188,25,31,66,-1,2,13,20,2,31.8,33.51,1018.08,1,0
2022-11-02 15:19:17,1188,25,31,66,-1,2,13,20,2,31.8,33.51,1018.08,1,0
2022-11-02 15:19:17,1188,25,31,66,-1,2,13,20,2,31.8,33.51,1018.08,1,0
2022-11-02 15:19:17,1188,25,31,66,-1,2,13,20,2,31.8,33.51,1018.08,1,0
2022-11-02 15:19:17,905,17,-31,67,-8,-5,11,19,4,31.8,33.51,1018.08,1,0
2022-11-02 15:19:17,905,17,-31,67,-8,-5,11,19,4,31.8,33.51,1018.08,1,0
2022-11-02 15:19:17,905,17,-31,67,-8,-5,11,19,4,31.8,33.51,1018.08,1,0
2022-11-02 15:19:17,905,17,-31,67,-8,-5,11,19,4,31.8,33.51,1018.08,1,0
2022-11-02 15:19:17,1022,-121,72,59,14,-4,10,13,1,31.8,33.51,1018.08,1,0
2022-11-02 15:19:17,1022,-121,72,59,14,-4,10,13,1,31.8,33.51,1018.08,1,0
2022-11-02 15:19:17,1022,-121,72,59,14,-4,10,13,1,31.8,33.51,1018.08,1,0
2022-11-02 15:19:17,1022,-121,72,59,14,-4,10,13,1,31.8,33.51,1018.08,1,0
2022-11-02 15:19:17,1018,70,37,57,5,-10,12,9,3,31.8,33.51,1018.08,1,0
2022-11-02 15:19:17,1018,70,37,57,5,-10,12,9,3,31.8,33.51,1018.08,1,0
2022-11-02 15:19:17,1018,70,37,57,5,-10,12,9,3,31.8,33.51,1018.08,1,0
2022-11-02 15:19:17,1018,70,37,57,5,-10,12,9,3,31.8,33.51,1018.08,1,0
2022-11-02 15:19:17,1007,48,44,63,5,-7,10,5,3,31.8,33.51,1018.08,1,0
2022-11-02 15:19:17,1007,48,44,63,5,-7,10,5,3,31.8,33.51,1018.08,1,0
2022-11-02 15:19:17,1007,48,44,63,5,-7,10,5,3,31.8,33.51,1018.08,1,0
2022-11-02 15:19:17,1007,48,44,63,5,-7,10,5,3,31.8,33.51,1018.08,1,0
2022-11-02 15:19:17,1007,101,52,73,9,-2,10,-2,6,31.8,33.53,1018.08,1,0
2022-11-02 15:19:17,1007,101,52,73,9,-2,10,-2,6,31.8,33.53,1018.08,1,0
2022-11-02 15:19:17,1007,101,52,73,9,-2,10,-2,6,31.8,33.53,1018.08,1,0
2022-11-02 15:19:17,1007,101,52,73,9,-2,10,-2,6,31.8,33.53,1018.08,1,0
2022-11-02 15:19:17,1036,81,74,68,4,-2,14,-3,8,31.8,33.53,1018.08,1,0
2022-11-02 15:19:17,1036,81,74,68,4,-2,14,-3,8,31.8,33.53,1018.08,1,0
2022-11-02 15:19:17,1036,81,74,68,4,-2,14,-3,8,31.8,33.53,1018.08,1,0
2022-11-02 15:19:17,1036,81,74,68,4,-2,14,-3,8,31.8,33.53,1018.08,1,0
2022-11-02 15:19:17,1005,126,58,55,0,0,13,-9,12,31.8,33.53,1018.08,1,0
2022-11-02 15:19:17,1005,126,58,55,0,0,13,-9,12,31.8,33.53,1018.08,1,0
2022-11-02 15:19:17,1005,126,58,55,0,0,13,-9,12,31.8,33.53,1018.08,1,0
2022-11-02 15:19:17,1005,126,58,55,0,0,13,-9,12,31.8,33.53,1018.08,1,0
2022-11-02 15:19:17,1024,152,74,51,-1,3,14,-13,8,31.8,33.53,1018.08,1,0
2022-11-02 15:19:17,1024,152,74,51,-1,3,14,-13,8,31.8,33.53,1018.08,1,0
2022-11-02 15:19:17,1024,152,74,51,-1,3,14,-13,8,31.8,33.53,1018.08,1,0
2022-11-02 15:19:17,1024,152,74,51,-1,3,14,-13,8,31.8,33.53,1018.08,1,0
2022-11-02 15:19:18,1013,83,60,44,-10,10,13,-17,14,31.8,33.53,1018.08,1,0
2022-11-02 15:19:18,1013,83,60,44,-10,10,13,-17,14,31.8,33.53,1018.08,1,0
2022-11-02 15:19:18,1013,83,60,44,-10,10,13,-17,14,31.8,33.53,1018.08,1,0
2022-11-02 15:19:18,1013,83,60,44,-10,10,13,-17,14,31.8,33.53,1018.08,1,0
2022-11-02 15:19:18,1015,76,56,17,-10,11,13,-22,20,31.8,33.53,1018.08,1,0
2022-11-02 15:19:18,1015,76,56,17,-10,11,13,-22,20,31.8,33.53,1018.08,1,0
2022-11-02 15:19:18,1015,76,56,17,-10,11,13,-22,20,31.8,33.53,1018.08,1,0
2022-11-02 15:19:18,1015,76,56,17,-10,11,13,-22,20,31.8,33.53,1018.08,1,0
2022-11-02 15:19:18,929,19,-3,9,-1,-13,10,-25,17,31.8,33.53,1018.08,1,0
2022-11-02 15:19:18,929,19,-3,9,-1,-13,10,-25,17,31.8,33.53,1018.08,1,0
2022-11-02 15:19:18,929,19,-3,9,-1,-13,10,-25,17,31.8,33.53,1018.08,1,0
2022-11-02 15:19:18,929,19,-3,9,-1,-13,10,-25,17,31.8,33.53,1018.08,1,0
2022-11-02 15:19:18,1048,48,-31,6,-5,2,10,-23,18,31.8,33.53,1018.08,1,0
2022-11-02 15:19:18,1048,48,-31,6,-5,2,10,-23,18,31.8,33.53,1018.08,1,0
2022-11-02 15:19:18,1048,48,-31,6,-5,2,10,-23,18,31.8,33.53,1018.08,1,0
2022-11-02 15:19:18,1048,48,-31,6,-5,2,10,-23,18,31.8,33.53,1018.08,1,0
2022-11-02 15:19:18,1054,-40,-33,35,-9,8,9,-24,12,31.8,33.53,1018.08,1,0
2022-11-02 15:19:18,1054,-40,-33,35,-9,8,9,-24,12,31.8,33.53,1018.08,1,0
2022-11-02 15:19:18,1054,-40,-33,35,-9,8,9,-24,12,31.8,33.53,1018.08,1,0
2022-11-02 15:19:18,1054,-40,-33,35,-9,8,9,-24,12,31.8,33.53,1018.08,1,0
2022-11-02 15:19:18,999,-5,-76,45,-11,8,9,-25,17,31.8,33.53,1018.08,1,0
2022-11-02 15:19:18,999,-5,-76,45,-11,8,9,-25,17,31.8,33.53,1018.08,1,0
2022-11-02 15:19:18,999,-5,-76,45,-11,8,9,-25,17,31.8,33.53,1018.08,1,0
2022-11-02 15:19:18,999,-5,-76,45,-11,8,9,-25,17,31.8,33.53,1018.08,1,0
2022-11-02 15:19:18,999,-103,-42,49,-9,3,6,-27,16,31.8,33.54,1018.11,1,0
2022-11-02 15:19:18,999,-103,-42,49,-9,3,6,-27,16,31.8,33.54,1018.11,1,0
2022-11-02 15:19:18,999,-103,-42,49,-9,3,6,-27,16,31.8,33.54,1018.11,1,0
2022-11-02 15:19:18,999,-103,-42,49,-9,3,6,-27,16,31.8,33.54,1018.11,1,0
2022-11-02 15:19:18,993,-72,-81,37,-3,2,8,-31,24,31.8,33.54,1018.11,1,0
2022-11-02 15:19:18,993,-72,-81,37,-3,2,8,-31,24,31.8,33.54,1018.11,1,0
2022-11-02 15:19:18,993,-72,-81,37,-3,2,8,-31,24,31.8,33.54,1018.11,1,0
2022-11-02 15:19:18,993,-72,-81,37,-3,2,8,-31,24,31.8,33.54,1018.11,1,0
2022-11-02 15:19:18,1030,-89,-81,40,2,6,7,-36,27,31.8,33.54,1018.11,1,0
2022-11-02 15:19:18,1030,-89,-81,40,2,6,7,-36,27,31.8,33.54,1018.11,1,0
2022-11-02 15:19:18,1030,-89,-81,40,2,6,7,-36,27,31.8,33.54,1018.11,1,0
2022-11-02 15:19:18,1030,-89,-81,40,2,6,7,-36,27,31.8,33.54,1018.11,1,0
2022-11-02 15:19:18,983,-40,-97,37,0,3,7,-36,34,31.8,33.54,1018.11,1,0
2022-11-02 15:19:18,983,-40,-97,37,0,3,7,-36,34,31.8,33.54,1018.11,1,0
2022-11-02 15:19:18,983,-40,-97,37,0,3,7,-36,34,31.8,33.54,1018.11,1,0
2022-11-02 15:19:18,983,-40,-97,37,0,3,7,-36,34,31.8,33.54,1018.11,1,0
2022-11-02 15:19:19,997,-64,-85,40,3,-1,7,-37,34,31.8,33.54,1018.11,1,0
2022-11-02 15:19:19,997,-64,-85,40,3,-1,7,-37,34,31.8,33.54,1018.11,1,0
2022-11-02 15:19:19,997,-64,-85,40,3,-1,7,-37,34,31.8,33.54,1018.11,1,0
2022-11-02 15:19:19,997,-64,-85,40,3,-1,7,-37,34,31.8,33.54,1018.11,1,0
2022-11-02 15:19:19,999,0,-95,38,0,-4,8,-38,38,31.8,33.54,1018.11,1,0
2022-11-02 15:19:19,999,0,-95,38,0,-4,8,-38,38,31.8,33.54,1018.11,1,0
2022-11-02 15:19:19,999,0,-95,38,0,-4,8,-38,38,31.8,33.54,1018.11,1,0
2022-11-02 15:19:19,999,0,-95,38,0,-4,8,-38,38,31.8,33.54,1018.11,1,0
2022-11-02 15:19:19,1009,103,-128,55,-3,-18,4,-40,39,31.8,33.54,1018.11,1,0
2022-11-02 15:19:19,1009,103,-128,55,-3,-18,4,-40,39,31.8,33.54,1018.11,1,0
2022-11-02 15:19:19,1009,103,-128,55,-3,-18,4,-40,39,31.8,33.54,1018.11,1,0
2022-11-02 15:19:19,1009,103,-128,55,-3,-18,4,-40,39,31.8,33.54,1018.11,1,0
2022-11-02 15:19:19,1202,-150,21,59,-2,-2,6,-41,43,31.8,33.54,1018.11,1,0
2022-11-02 15:19:19,1202,-150,21,59,-2,-2,6,-41,43,31.8,33.54,1018.11,1,0
2022-11-02 15:19:19,1202,-150,21,59,-2,-2,6,-41,43,31.8,33.54,1018.11,1,0
2022-11-02 15:19:19,1202,-150,21,59,-2,-2,6,-41,43,31.8,33.54,1018.11,1,0
2022-11-02 15:19:19,946,17,-68,32,-3,-3,10,-41,49,31.8,33.54,1018.11,1,0
2022-11-02 15:19:19,946,17,-68,32,-3,-3,10,-41,49,31.8,33.54,1018.11,1,0
2022-11-02 15:19:19,946,17,-68,32,-3,-3,10,-41,49,31.8,33.54,1018.11,1,0
2022-11-02 15:19:19,946,17,-68,32,-3,-3,10,-41,49,31.8,33.54,1018.11,1,0
2022-11-02 15:19:19,1024,-78,42,40,13,-5,10,-40,57,31.8,33.54,1018.11,1,0
2022-11-02 15:19:19,1024,-78,42,40,13,-5,10,-40,57,31.8,33.54,1018.11,1,0
2022-11-02 15:19:19,1024,-78,42,40,13,-5,10,-40,57,31.8,33.54,1018.11,1,0
2022-11-02 15:19:19,1024,-78,42,40,13,-5,10,-40,57,31.8,33.54,1018.11,1,0
2022-11-02 15:19:19,985,29,21,42,6,-7,9,-41,59,31.8,33.53,1018.09,1,0
2022-11-02 15:19:19,985,29,21,42,6,-7,9,-41,59,31.8,33.53,1018.09,1,0
2022-11-02 15:19:19,985,29,21,42,6,-7,9,-41,59,31.8,33.53,1018.09,1,0
2022-11-02 15:19:19,985,29,21,42,6,-7,9,-41,59,31.8,33.53,1018.09,1,0
2022-11-02 15:19:19,1054,13,-11,36,3,-6,9,-39,62,31.8,33.53,1018.09,1,0
2022-11-02 15:19:19,1054,13,-11,36,3,-6,9,-39,62,31.8,33.53,1018.09,1,0
2022-11-02 15:19:19,1054,13,-11,36,3,-6,9,-39,62,31.8,33.53,1018.09,1,0
2022-11-02 15:19:19,1054,13,-11,36,3,-6,9,-39,62,31.8,33.53,1018.09,1,0
2022-11-02 15:19:19,999,66,-9,21,6,-10,12,-40,64,31.8,33.53,1018.09,1,0
2022-11-02 15:19:19,999,66,-9,21,6,-10,12,-40,64,31.8,33.53,1018.09,1,0
2022-11-02 15:19:19,999,66,-9,21,6,-10,12,-40,64,31.8,33.53,1018.09,1,0
2022-11-02 15:19:19,999,66,-9,21,6,-10,12,-40,64,31.8,33.53,1018.09,1,0
2022-11-02 15:19:19,1001,132,-1,20,2,-4,13,-38,68,31.8,33.53,1018.09,1,0
2022-11-02 15:19:19,1001,132,-1,20,2,-4,13,-38,68,31.8,33.53,1018.09,1,0
2022-11-02 15:19:19,1001,132,-1,20,2,-4,13,-38,68,31.8,33.53,1018.09,1,0
2022-11-02 15:19:19,1001,132,-1,20,2,-4,13,-38,68,31.8,33.53,1018.09,1,0
2022-11-02 15:19:20,999,134,35,16,1,2,14,-36,73,31.8,33.53,1018.09,1,0
2022-11-02 15:19:20,999,134,35,16,1,2,14,-36,73,31.8,33.53,1018.09,1,0
2022-11-02 15:19:20,999,134,35,16,1,2,14,-36,73,31.8,33.53,1018.09,1,0
2022-11-02 15:19:20,999,134,35,16,1,2,14,-36,73,31.8,33.53,1018.09,1,0
2022-11-02 15:19:20,989,107,-11,3,-5,11,14,-35,74,31.8,33.53,1018.09,1,0
2022-11-02 15:19:20,989,107,-11,3,-5,11,14,-35,74,31.8,33.53,1018.09,1,0
2022-11-02 15:19:20,989,107,-11,3,-5,11,14,-35,74,31.8,33.53,1018.09,1,0
2022-11-02 15:19:20,989,107,-11,3,-5,11,14,-35,74,31.8,33.53,1018.09,1,0
2022-11-02 15:19:20,1145,0,21,-15,-1,0,13,-34,74,31.8,33.53,1018.09,1,0
2022-11-02 15:19:20,1145,0,21,-15,-1,0,13,-34,74,31.8,33.53,1018.09,1,0
2022-11-02 15:19:20,1145,0,21,-15,-1,0,13,-34,74,31.8,33.53,1018.09,1,0
2022-11-02 15:19:20,1145,0,21,-15,-1,0,13,-34,74,31.8,33.53,1018.09,1,0
2022-11-02 15:19:20,1118,-64,144,0,6,-1,14,-35,71,31.8,33.53,1018.09,1,0
2022-11-02 15:19:20,1118,-64,144,0,6,-1,14,-35,71,31.8,33.53,1018.09,1,0
2022-11-02 15:19:20,1118,-64,144,0,6,-1,14,-35,71,31.8,33.53,1018.09,1,0
2022-11-02 15:19:20,1118,-64,144,0,6,-1,14,-35,71,31.8,33.53,1018.09,1,0
2022-11-02 15:19:20,974,33,-19,-9,-10,12,13,-39,71,31.8,33.53,1018.09,1,0
2022-11-02 15:19:20,974,33,-19,-9,-10,12,13,-39,71,31.8,33.53,1018.09,1,0
2022-11-02 15:19:20,974,33,-19,-9,-10,12,13,-39,71,31.8,33.53,1018.09,1,0
2022-11-02 15:19:20,974,33,-19,-9,-10,12,13,-39,71,31.8,33.53,1018.09,1,0
2022-11-02 15:19:20,999,-160,5,5,-3,10,15,-35,75,31.8,33.53,1018.09,1,0
2022-11-02 15:19:20,999,-160,5,5,-3,10,15,-35,75,31.8,33.53,1018.09,1,0
2022-11-02 15:19:20,999,-160,5,5,-3,10,15,-35,75,31.8,33.53,1018.09,1,0
2022-11-02 15:19:20,999,-160,5,5,-3,10,15,-35,75,31.8,33.53,1018.09,1,0
2022-11-02 15:19:20,1018,-40,-56,1,-6,7,13,-33,76,31.8,33.53,1018.02,1,0
2022-11-02 15:19:20,1018,-40,-56,1,-6,7,13,-33,76,31.8,33.53,1018.02,1,0
2022-11-02 15:19:20,1018,-40,-56,1,-6,7,13,-33,76,31.8,33.53,1018.02,1,0
2022-11-02 15:19:20,1018,-40,-56,1,-6,7,13,-33,76,31.8,33.53,1018.02,1,0
2022-11-02 15:19:20,1011,-99,-54,12,-4,5,14,-36,72,31.8,33.53,1018.02,1,0
2022-11-02 15:19:20,1011,-99,-54,12,-4,5,14,-36,72,31.8,33.53,1018.02,1,0
2022-11-02 15:19:20,1011,-99,-54,12,-4,5,14,-36,72,31.8,33.53,1018.02,1,0
2022-11-02 15:19:20,1011,-99,-54,12,-4,5,14,-36,72,31.8,33.53,1018.02,1,0
2022-11-02 15:19:20,989,-95,-72,8,-4,3,13,-36,76,31.8,33.53,1018.02,1,0
2022-11-02 15:19:20,989,-95,-72,8,-4,3,13,-36,76,31.8,33.53,1018.02,1,0
2022-11-02 15:19:20,989,-95,-72,8,-4,3,13,-36,76,31.8,33.53,1018.02,1,0
2022-11-02 15:19:20,989,-95,-72,8,-4,3,13,-36,76,31.8,33.53,1018.02,1,0
2022-11-02 15:19:20,981,-50,-81,13,0,-2,13,-38,73,31.8,33.53,1018.02,1,0
2022-11-02 15:19:20,981,-50,-81,13,0,-2,13,-38,73,31.8,33.53,1018.02,1,0
2022-11-02 15:19:20,981,-50,-81,13,0,-2,13,-38,73,31.8,33.53,1018.02,1,0
2022-11-02 15:19:20,981,-50,-81,13,0,-2,13,-38,73,31.8,33.53,1018.02,1,0
2022-11-02 15:19:21,997,-62,-81,11,2,-2,14,-39,76,31.8,33.53,1018.02,1,0
2022-11-02 15:19:21,997,-62,-81,11,2,-2,14,-39,76,31.8,33.53,1018.02,1,0
2022-11-02 15:19:21,997,-62,-81,11,2,-2,14,-39,76,31.8,33.53,1018.02,1,0
2022-11-02 15:19:21,997,-62,-81,11,2,-2,14,-39,76,31.8,33.53,1018.02,1,0
2022-11-02 15:19:21,1020,40,-85,18,0,-6,18,-36,76,31.8,33.53,1018.02,1,0
2022-11-02 15:19:21,1020,40,-85,18,0,-6,18,-36,76,31.8,33.53,1018.02,1,0
2022-11-02 15:19:21,1020,40,-85,18,0,-6,18,-36,76,31.8,33.53,1018.02,1,0
2022-11-02 15:19:21,1020,40,-85,18,0,-6,18,-36,76,31.8,33.53,1018.02,1,0
2022-11-02 15:19:21,1087,109,-122,54,-8,-15,19,-37,76,31.8,33.53,1018.02,1,0
2022-11-02 15:19:21,1087,109,-122,54,-8,-15,19,-37,76,31.8,33.53,1018.02,1,0
2022-11-02 15:19:21,1087,109,-122,54,-8,-15,19,-37,76,31.8,33.53,1018.02,1,0
2022-11-02 15:19:21,1087,109,-122,54,-8,-15,19,-37,76,31.8,33.53,1018.02,1,0
2022-11-02 15:19:21,1069,-156,-11,39,-6,2,19,-34,78,31.8,33.53,1018.02,1,0
2022-11-02 15:19:21,1069,-156,-11,39,-6,2,19,-34,78,31.8,33.53,1018.02,1,0
2022-11-02 15:19:21,1069,-156,-11,39,-6,2,19,-34,78,31.8,33.53,1018.02,1,0
2022-11-02 15:19:21,1069,-156,-11,39,-6,2,19,-34,78,31.8,33.53,1018.02,1,0
2022-11-02 15:19:21,976,-27,5,48,9,-6,21,-25,83,31.8,33.53,1018.02,1,0
2022-11-02 15:19:21,976,-27,5,48,9,-6,21,-25,83,31.8,33.53,1018.02,1,0
2022-11-02 15:19:21,976,-27,5,48,9,-6,21,-25,83,31.8,33.53,1018.02,1,0
2022-11-02 15:19:21,976,-27,5,48,9,-6,21,-25,83,31.8,33.53,1018.02,1,0
2022-11-02 15:19:21,1007,-60,40,37,4,-7,24,-29,86,31.8,33.53,1018.02,1,0
2022-11-02 15:19:21,1007,-60,40,37,4,-7,24,-29,86,31.8,33.53,1018.02,1,0
2022-11-02 15:19:21,1007,-60,40,37,4,-7,24,-29,86,31.8,33.53,1018.02,1,0
2022-11-02 15:19:21,1007,-60,40,37,4,-7,24,-29,86,31.8,33.53,1018.02,1,0
2022-11-02 15:19:21,1026,17,23,32,5,-5,22,-24,90,31.8,33.55,1018.05,1,0
2022-11-02 15:19:21,1026,17,23,32,5,-5,22,-24,90,31.8,33.55,1018.05,1,0
2022-11-02 15:19:21,1026,17,23,32,5,-5,22,-24,90,31.8,33.55,1018.05,1,0
2022-11-02 15:19:21,1026,17,23,32,5,-5,22,-24,90,31.8,33.55,1018.05,1,0
2022-11-02 15:19:21,1005,60,-1,12,6,-16,25,-18,92,31.8,33.55,1018.05,1,0
2022-11-02 15:19:21,1005,60,-1,12,6,-16,25,-18,92,31.8,33.55,1018.05,1,0
2022-11-02 15:19:21,1005,60,-1,12,6,-16,25,-18,92,31.8,33.55,1018.05,1,0
2022-11-02 15:19:21,1005,60,-1,12,6,-16,25,-18,92,31.8,33.55,1018.05,1,0
2022-11-02 15:19:21,1015,134,1,9,7,-6,26,-19,89,31.8,33.55,1018.05,1,0
2022-11-02 15:19:21,1015,134,1,9,7,-6,26,-19,89,31.8,33.55,1018.05,1,0
2022-11-02 15:19:21,1015,134,1,9,7,-6,26,-19,89,31.8,33.55,1018.05,1,0
2022-11-02 15:19:21,1015,134,1,9,7,-6,26,-19,89,31.8,33.55,1018.05,1,0
2022-11-02 15:19:21,1009,111,3,4,4,0,27,-15,96,31.8,33.55,1018.05,1,0
2022-11-02 15:19:21,1009,111,3,4,4,0,27,-15,96,31.8,33.55,1018.05,1,0
2022-11-02 15:19:21,1009,111,3,4,4,0,27,-15,96,31.8,33.55,1018.05,1,0
2022-11-02 15:19:21,1009,111,3,4,4,0,27,-15,96,31.8,33.55,1018.05,1,0
2022-11-02 15:19:22,1024,124,11,0,2,10,27,-13,92,31.8,33.55,1018.05,1,0
2022-11-02 15:19:22,1024,124,11,0,2,10,27,-13,92,31.8,33.55,1018.05,1,0
2022-11-02 15:19:22,1024,124,11,0,2,10,27,-13,92,31.8,33.55,1018.05,1,0
2022-11-02 15:19:22,1024,124,11,0,2,10,27,-13,92,31.8,33.55,1018.05,1,0
2022-11-02 15:19:22,1022,72,52,-7,-3,8,26,-15,99,31.8,33.55,1018.05,1,0
2022-11-02 15:19:22,1022,72,52,-7,-3,8,26,-15,99,31.8,33.55,1018.05,1,0
2022-11-02 15:19:22,1022,72,52,-7,-3,8,26,-15,99,31.8,33.55,1018.05,1,0
2022-11-02 15:19:22,1022,72,52,-7,-3,8,26,-15,99,31.8,33.55,1018.05,1,0
2022-11-02 15:19:22,1138,13,-21,-31,-8,5,29,-14,94,31.8,33.55,1018.05,1,0
2022-11-02 15:19:22,1138,13,-21,-31,-8,5,29,-14,94,31.8,33.55,1018.05,1,0
2022-11-02 15:19:22,1138,13,-21,-31,-8,5,29,-14,94,31.8,33.55,1018.05,1,0
2022-11-02 15:19:22,1138,13,-21,-31,-8,5,29,-14,94,31.8,33.55,1018.05,1,0
2022-11-02 15:19:22,1057,-13,105,-6,4,-4,28,-16,95,31.8,33.55,1018.05,1,0
2022-11-02 15:19:22,1057,-13,105,-6,4,-4,28,-16,95,31.8,33.55,1018.05,1,0
2022-11-02 15:19:22,1057,-13,105,-6,4,-4,28,-16,95,31.8,33.55,1018.05,1,0
2022-11-02 15:19:22,1057,-13,105,-6,4,-4,28,-16,95,31.8,33.55,1018.05,1,0
2022-11-02 15:19:22,962,83,-13,-15,-8,7,30,-15,89,31.8,33.55,1018.05,1,0
2022-11-02 15:19:22,962,83,-13,-15,-8,7,30,-15,89,31.8,33.55,1018.05,1,0
2022-11-02 15:19:22,962,83,-13,-15,-8,7,30,-15,89,31.8,33.55,1018.05,1,0
2022-11-02 15:19:22,962,83,-13,-15,-8,7,30,-15,89,31.8,33.55,1018.05,1,0
2022-11-02 15:19:22,1024,-160,0,5,-4,8,30,-15,93,31.8,33.55,1018.05,1,0
2022-11-02 15:19:22,1024,-160,0,5,-4,8,30,-15,93,31.8,33.55,1018.05,1,0
2022-11-02 15:19:22,1024,-160,0,5,-4,8,30,-15,93,31.8,33.55,1018.05,1,0
2022-11-02 15:19:22,1024,-160,0,5,-4,8,30,-15,93,31.8,33.55,1018.05,1,0
2022-11-02 15:19:22,1024,-9,-81,8,-10,8,30,-17,88,31.8,33.56,1018.14,1,0
2022-11-02 15:19:22,1024,-9,-81,8,-10,8,30,-17,88,31.8,33.56,1018.14,1,0
2022-11-02 15:19:22,1024,-9,-81,8,-10,8,30,-17,88,31.8,33.56,1018.14,1,0
2022-11-02 15:19:22,1024,-9,-81,8,-10,8,30,-17,88,31.8,33.56,1018.14,1,0
2022-11-02 15:19:22,989,-117,-54,24,-2,6,30,-15,89,31.8,33.56,1018.14,1,0
2022-11-02 15:19:22,989,-117,-54,24,-2,6,30,-15,89,31.8,33.56,1018.14,1,0
2022-11-02 15:19:22,989,-117,-54,24,-2,6,30,-15,89,31.8,33.56,1018.14,1,0
2022-11-02 15:19:22,989,-117,-54,24,-2,6,30,-15,89,31.8,33.56,1018.14,1,0
2022-11-02 15:19:22,983,-54,-85,20,-6,1,31,-17,83,31.8,33.56,1018.14,1,0
2022-11-02 15:19:22,983,-54,-85,20,-6,1,31,-17,83,31.8,33.56,1018.14,1,0
2022-11-02 15:19:22,983,-54,-85,20,-6,1,31,-17,83,31.8,33.56,1018.14,1,0
2022-11-02 15:19:22,983,-54,-85,20,-6,1,31,-17,83,31.8,33.56,1018.14,1,0
2022-11-02 15:19:22,964,-48,-91,24,-2,-8,31,-14,90,31.8,33.56,1018.14,1,0
2022-11-02 15:19:22,964,-48,-91,24,-2,-8,31,-14,90,31.8,33.56,1018.14,1,0
2022-11-02 15:19:22,964,-48,-91,24,-2,-8,31,-14,90,31.8,33.56,1018.14,1,0
2022-11-02 15:19:22,964,-48,-91,24,-2,-8,31,-14,90,31.8,33.56,1018.14,1,0
2022-11-02 15:19:23,1011,-15,-128,26,5,-4,32,-12,88,31.8,33.56,1018.14,1,0
2022-11-02 15:19:23,1011,-15,-128,26,5,-4,32,-12,88,31.8,33.56,1018.14,1,0
2022-11-02 15:19:23,1011,-15,-128,26,5,-4,32,-12,88,31.8,33.56,1018.14,1,0
2022-11-02 15:19:23,1011,-15,-128,26,5,-4,32,-12,88,31.8,33.56,1018.14,1,0
2022-11-02 15:19:23,1015,46,-113,35,3,-9,33,-10,92,31.8,33.56,1018.14,1,0
2022-11-02 15:19:23,1015,46,-113,35,3,-9,33,-10,92,31.8,33.56,1018.14,1,0
2022-11-02 15:19:23,1015,46,-113,35,3,-9,33,-10,92,31.8,33.56,1018.14,1,0
2022-11-02 15:19:23,1015,46,-113,35,3,-9,33,-10,92,31.8,33.56,1018.14,1,0
2022-11-02 15:19:23,1220,-130,-5,40,-2,-1,34,-9,94,31.8,33.56,1018.14,1,0
2022-11-02 15:19:23,1220,-130,-5,40,-2,-1,34,-9,94,31.8,33.56,1018.14,1,0
2022-11-02 15:19:23,1220,-130,-5,40,-2,-1,34,-9,94,31.8,33.56,1018.14,1,0
2022-11-02 15:19:23,1220,-130,-5,40,-2,-1,34,-9,94,31.8,33.56,1018.14,1,0
2022-11-02 15:19:23,929,3,-40,10,-7,-2,35,-2,91,31.8,33.56,1018.14,1,0
2022-11-02 15:19:23,929,3,-40,10,-7,-2,35,-2,91,31.8,33.56,1018.14,1,0
2022-11-02 15:19:23,929,3,-40,10,-7,-2,35,-2,91,31.8,33.56,1018.14,1,0
2022-11-02 15:19:23,929,3,-40,10,-7,-2,35,-2,91,31.8,33.56,1018.14,1,0
2022-11-02 15:19:23,1020,-99,25,12,8,-4,35,-4,92,31.8,33.56,1018.14,1,0
2022-11-02 15:19:23,1020,-99,25,12,8,-4,35,-4,92,31.8,33.56,1018.14,1,0
2022-11-02 15:19:23,1020,-99,25,12,8,-4,35,-4,92,31.8,33.56,1018.14,1,0
2022-11-02 15:19:23,1020,-99,25,12,8,-4,35,-4,92,31.8,33.56,1018.14,1,0
2022-11-02 15:19:23,995,9,13,-2,2,-4,37,2,92,31.8,33.56,1018.14,1,0
2022-11-02 15:19:23,995,9,13,-2,2,-4,37,2,92,31.8,33.56,1018.14,1,0
2022-11-02 15:19:23,995,9,13,-2,2,-4,37,2,92,31.8,33.56,1018.14,1,0
2022-11-02 15:19:23,995,9,13,-2,2,-4,37,2,92,31.8,33.56,1018.14,1,0
2022-11-02 15:19:23,1038,27,23,0,4,-2,36,1,92,31.8,33.55,1018.08,1,0
2022-11-02 15:19:23,1038,27,23,0,4,-2,36,1,92,31.8,33.55,1018.08,1,0
2022-11-02 15:19:23,1038,27,23,0,4,-2,36,1,92,31.8,33.55,1018.08,1,0
2022-11-02 15:19:23,1038,27,23,0,4,-2,36,1,92,31.8,33.55,1018.08,1,0
2022-11-02 15:19:23,993,72,-11,-12,4,-7,37,2,93,31.8,33.55,1018.08,1,0
2022-11-02 15:19:23,993,72,-11,-12,4,-7,37,2,93,31.8,33.55,1018.08,1,0
2022-11-02 15:19:23,993,72,-11,-12,4,-7,37,2,93,31.8,33.55,1018.08,1,0
2022-11-02 15:19:23,993,72,-11,-12,4,-7,37,2,93,31.8,33.55,1018.08,1,0
2022-11-02 15:19:23,1011,89,-17,-15,5,-2,37,0,87,31.8,33.55,1018.08,1,0
2022-11-02 15:19:23,1011,89,-17,-15,5,-2,37,0,87,31.8,33.55,1018.08,1,0
2022-11-02 15:19:23,1011,89,-17,-15,5,-2,37,0,87,31.8,33.55,1018.08,1,0
2022-11-02 15:19:23,1011,89,-17,-15,5,-2,37,0,87,31.8,33.55,1018.08,1,0
2022-11-02 15:19:23,1005,97,-19,-16,5,4,39,1,88,31.8,33.55,1018.08,1,0
2022-11-02 15:19:23,1005,97,-19,-16,5,4,39,1,88,31.8,33.55,1018.08,1,0
2022-11-02 15:19:23,1005,97,-19,-16,5,4,39,1,88,31.8,33.55,1018.08,1,0
2022-11-02 15:19:23,1005,97,-19,-16,5,4,39,1,88,31.8,33.55,1018.08,1,0
2022-11-02 15:19:24,1024,93,-11,-18,-2,10,37,-2,86,31.8,33.55,1018.08,1,0
2022-11-02 15:19:24,1024,93,-11,-18,-2,10,37,-2,86,31.8,33.55,1018.08,1,0
2022-11-02 15:19:24,1024,93,-11,-18,-2,10,37,-2,86,31.8,33.55,1018.08,1,0
2022-11-02 15:19:24,1024,93,-11,-18,-2,10,37,-2,86,31.8,33.55,1018.08,1,0
2022-11-02 15:19:24,1011,19,-21,-22,-6,4,36,0,91,31.8,33.55,1018.08,1,0
2022-11-02 15:19:24,1011,19,-21,-22,-6,4,36,0,91,31.8,33.55,1018.08,1,0
2022-11-02 15:19:24,1011,19,-21,-22,-6,4,36,0,91,31.8,33.55,1018.08,1,0
2022-11-02 15:19:24,1011,19,-21,-22,-6,4,36,0,91,31.8,33.55,1018.08,1,0
2022-11-02 15:19:24,1179,68,-11,-45,5,2,37,-3,87,31.8,33.55,1018.08,1,0
2022-11-02 15:19:24,1179,68,-11,-45,5,2,37,-3,87,31.8,33.55,1018.08,1,0
2022-11-02 15:19:24,1179,68,-11,-45,5,2,37,-3,87,31.8,33.55,1018.08,1,0
2022-11-02 15:19:24,1179,68,-11,-45,5,2,37,-3,87,31.8,33.55,1018.08,1,0
2022-11-02 15:19:24,946,-91,31,-31,-6,7,35,-5,82,31.8,33.55,1018.08,1,0
2022-11-02 15:19:24,946,-91,31,-31,-6,7,35,-5,82,31.8,33.55,1018.08,1,0
2022-11-02 15:19:24,946,-91,31,-31,-6,7,35,-5,82,31.8,33.55,1018.08,1,0
2022-11-02 15:19:24,946,-91,31,-31,-6,7,35,-5,82,31.8,33.55,1018.08,1,0
2022-11-02 15:19:24,993,-97,11,-18,3,5,36,-7,82,31.8,33.55,1018.08,1,0
2022-11-02 15:19:24,993,-97,11,-18,3,5,36,-7,82,31.8,33.55,1018.08,1,0
2022-11-02 15:19:24,993,-97,11,-18,3,5,36,-7,82,31.8,33.55,1018.08,1,0
2022-11-02 15:19:24,993,-97,11,-18,3,5,36,-7,82,31.8,33.55,1018.08,1,0
2022-11-02 15:19:24,1040,-60,-54,-18,-4,5,35,-8,80,31.8,33.55,1018.08,1,0
2022-11-02 15:19:24,1040,-60,-54,-18,-4,5,35,-8,80,31.8,33.55,1018.08,1,0
2022-11-02 15:19:24,1040,-60,-54,-18,-4,5,35,-8,80,31.8,33.55,1018.08,1,0
2022-11-02 15:19:24,1040,-60,-54,-18,-4,5,35,-8,80,31.8,33.55,1018.08,1,0
2022-11-02 15:19:24,1007,-40,-85,7,-6,3,37,-10,78,31.8,33.56,1018.12,1,0
2022-11-02 15:19:24,1007,-40,-85,7,-6,3,37,-10,78,31.8,33.56,1018.12,1,0
2022-11-02 15:19:24,1007,-40,-85,7,-6,3,37,-10,78,31.8,33.56,1018.12,1,0
2022-11-02 15:19:24,1007,-40,-85,7,-6,3,37,-10,78,31.8,33.56,1018.12,1,0
2022-11-02 15:19:24,1003,-50,-85,11,-2,3,35,-10,78,31.8,33.56,1018.12,1,0
2022-11-02 15:19:24,1003,-50,-85,11,-2,3,35,-10,78,31.8,33.56,1018.12,1,0
2022-11-02 15:19:24,1003,-50,-85,11,-2,3,35,-10,78,31.8,33.56,1018.12,1,0
2022-11-02 15:19:24,1003,-50,-85,11,-2,3,35,-10,78,31.8,33.56,1018.12,1,0
2022-11-02 15:19:24,946,-5,-126,23,0,-4,35,-12,79,31.8,33.56,1018.12,1,0
2022-11-02 15:19:24,946,-5,-126,23,0,-4,35,-12,79,31.8,33.56,1018.12,1,0
2022-11-02 15:19:24,946,-5,-126,23,0,-4,35,-12,79,31.8,33.56,1018.12,1,0
2022-11-02 15:19:24,946,-5,-126,23,0,-4,35,-12,79,31.8,33.56,1018.12,1,0
2022-11-02 15:19:24,1018,-40,-121,22,2,-8,38,-11,81,31.8,33.56,1018.12,1,0
2022-11-02 15:19:24,1018,-40,-121,22,2,-8,38,-11,81,31.8,33.56,1018.12,1,0
2022-11-02 15:19:24,1018,-40,-121,22,2,-8,38,-11,81,31.8,33.56,1018.12,1,0
2022-11-02 15:19:24,1018,-40,-121,22,2,-8,38,-11,81,31.8,33.56,1018.12,1,0
2022-11-02 15:19:25,1065,46,-163,28,-8,-14,36,-4,78,31.8,33.56,1018.12,1,0
2022-11-02 15:19:25,1065,46,-163,28,-8,-14,36,-4,78,31.8,33.56,1018.12,1,0
2022-11-02 15:19:25,1065,46,-163,28,-8,-14,36,-4,78,31.8,33.56,1018.12,1,0
2022-11-02 15:19:25,1065,46,-163,28,-8,-14,36,-4,78,31.8,33.56,1018.12,1,0
2022-11-02 15:19:25,1036,-162,-21,22,-5,3,36,-5,78,31.8,33.56,1018.12,1,0
2022-11-02 15:19:25,1036,-162,-21,22,-5,3,36,-5,78,31.8,33.56,1018.12,1,0
2022-11-02 15:19:25,1036,-162,-21,22,-5,3,36,-5,78,31.8,33.56,1018.12,1,0
2022-11-02 15:19:25,1036,-162,-21,22,-5,3,36,-5,78,31.8,33.56,1018.12,1,0
2022-11-02 15:19:25,968,-37,1,26,11,-9,37,-3,76,31.8,33.56,1018.12,1,0
2022-11-02 15:19:25,968,-37,1,26,11,-9,37,-3,76,31.8,33.56,1018.12,1,0
2022-11-02 15:19:25,968,-37,1,26,11,-9,37,-3,76,31.8,33.56,1018.12,1,0
2022-11-02 15:19:25,968,-37,1,26,11,-9,37,-3,76,31.8,33.56,1018.12,1,0
2022-11-02 15:19:25,1007,-9,29,12,0,-6,37,-3,76,31.8,33.56,1018.12,1,0
2022-11-02 15:19:25,1007,-9,29,12,0,-6,37,-3,76,31.8,33.56,1018.12,1,0
2022-11-02 15:19:25,1007,-9,29,12,0,-6,37,-3,76,31.8,33.56,1018.12,1,0
2022-11-02 15:19:25,1007,-9,29,12,0,-6,37,-3,76,31.8,33.56,1018.12,1,0
2022-11-02 15:19:25,1034,-3,7,13,3,-8,36,0,76,31.8,33.56,1018.12,1,0
2022-11-02 15:19:25,1034,-3,7,13,3,-8,36,0,76,31.8,33.56,1018.12,1,0
2022-11-02 15:19:25,1034,-3,7,13,3,-8,36,0,76,31.8,33.56,1018.12,1,0
2022-11-02 15:19:25,1034,-3,7,13,3,-8,36,0,76,31.8,33.56,1018.12,1,0
2022-11-02 15:19:25,991,95,-11,-9,4,-10,37,0,78,31.8,33.56,1018.12,1,0
2022-11-02 15:19:25,991,95,-11,-9,4,-10,37,0,78,31.8,33.56,1018.12,1,0
2022-11-02 15:19:25,991,95,-11,-9,4,-10,37,0,78,31.8,33.56,1018.12,1,0
2022-11-02 15:19:25,991,95,-11,-9,4,-10,37,0,78,31.8,33.56,1018.12,1,0
2022-11-02 15:19:25,1038,78,3,-12,9,0,35,2,74,31.8,33.54,1018.08,1,0
2022-11-02 15:19:25,1038,78,3,-12,9,0,35,2,74,31.8,33.54,1018.08,1,0
2022-11-02 15:19:25,1038,78,3,-12,9,0,35,2,74,31.8,33.54,1018.08,1,0
2022-11-02 15:19:25,1038,78,3,-12,9,0,35,2,74,31.8,33.54,1018.08,1,0
2022-11-02 15:19:25,997,119,-7,-21,0,6,36,0,76,31.8,33.54,1018.08,1,0
2022-11-02 15:19:25,997,119,-7,-21,0,6,36,0,76,31.8,33.54,1018.08,1,0
2022-11-02 15:19:25,997,119,-7,-21,0,6,36,0,76,31.8,33.54,1018.08,1,0
2022-11-02 15:19:25,997,119,-7,-21,0,6,36,0,76,31.8,33.54,1018.08,1,0
2022-11-02 15:19:25,1018,56,-13,-29,-1,12,36,0,74,31.8,33.54,1018.08,1,0
2022-11-02 15:19:25,1018,56,-13,-29,-1,12,36,0,74,31.8,33.54,1018.08,1,0
2022-11-02 15:19:25,1018,56,-13,-29,-1,12,36,0,74,31.8,33.54,1018.08,1,0
2022-11-02 15:19:25,1018,56,-13,-29,-1,12,36,0,74,31.8,33.54,1018.08,1,0
2022-11-02 15:19:25,1007,99,-17,-42,-7,4,34,-3,78,31.8,33.54,1018.08,1,0
2022-11-02 15:19:25,1007,99,-17,-42,-7,4,34,-3,78,31.8,33.54,1018.08,1,0
2022-11-02 15:19:25,1007,99,-17,-42,-7,4,34,-3,78,31.8,33.54,1018.08,1,0
2022-11-02 15:19:25,1007,99,-17,-42,-7,4,34,-3,78,31.8,33.54,1018.08,1,0
2022-11-02 15:19:26,1128,27,33,-44,8,-2,35,-3,70,31.8,33.54,1018.08,1,0
2022-11-02 15:19:26,1128,27,33,-44,8,-2,35,-3,70,31.8,33.54,1018.08,1,0
2022-11-02 15:19:26,1128,27,33,-44,8,-2,35,-3,70,31.8,33.54,1018.08,1,0
2022-11-02 15:19:26,1128,27,33,-44,8,-2,35,-3,70,31.8,33.54,1018.08,1,0
2022-11-02 15:19:26,946,-115,3,-58,-3,15,35,-8,74,31.8,33.54,1018.08,1,0
2022-11-02 15:19:26,946,-115,3,-58,-3,15,35,-8,74,31.8,33.54,1018.08,1,0
2022-11-02 15:19:26,946,-115,3,-58,-3,15,35,-8,74,31.8,33.54,1018.08,1,0
2022-11-02 15:19:26,946,-115,3,-58,-3,15,35,-8,74,31.8,33.54,1018.08,1,0
2022-11-02 15:19:26,989,-152,1,-57,4,12,33,-10,69,31.8,33.54,1018.08,1,0
2022-11-02 15:19:26,989,-152,1,-57,4,12,33,-10,69,31.8,33.54,1018.08,1,0
2022-11-02 15:19:26,989,-152,1,-57,4,12,33,-10,69,31.8,33.54,1018.08,1,0
2022-11-02 15:19:26,989,-152,1,-57,4,12,33,-10,69,31.8,33.54,1018.08,1,0
2022-11-02 15:19:26,1024,-91,-78,-67,-3,8,34,-9,71,31.8,33.54,1018.08,1,0
2022-11-02 15:19:26,1024,-91,-78,-67,-3,8,34,-9,71,31.8,33.54,1018.08,1,0
2022-11-02 15:19:26,1024,-91,-78,-67,-3,8,34,-9,71,31.8,33.54,1018.08,1,0
2022-11-02 15:19:26,1024,-91,-78,-67,-3,8,34,-9,71,31.8,33.54,1018.08,1,0
2022-11-02 15:19:26,981,-46,-101,-52,0,5,33,-11,62,31.8,33.54,1018.08,1,0
2022-11-02 15:19:26,981,-46,-101,-52,0,5,33,-11,62,31.8,33.54,1018.08,1,0
2022-11-02 15:19:26,981,-46,-101,-52,0,5,33,-11,62,31.8,33.54,1018.08,1,0
2022-11-02 15:19:26,981,-46,-101,-52,0,5,33,-11,62,31.8,33.54,1018.08,1,0
2022-11-02 15:19:26,974,-97,-136,-53,1,5,32,-17,63,31.8,33.54,1018.08,1,0
2022-11-02 15:19:26,974,-97,-136,-53,1,5,32,-17,63,31.8,33.54,1018.08,1,0
2022-11-02 15:19:26,974,-97,-136,-53,1,5,32,-17,63,31.8,33.54,1018.08,1,0
2022-11-02 15:19:26,974,-97,-136,-53,1,5,32,-17,63,31.8,33.54,1018.08,1,0
2022-11-02 15:19:26,950,-121,-122,-45,8,-6,30,-16,58,31.8,33.55,1018.08,1,0
2022-11-02 15:19:26,950,-121,-122,-45,8,-6,30,-16,58,31.8,33.55,1018.08,1,0
2022-11-02 15:19:26,950,-121,-122,-45,8,-6,30,-16,58,31.8,33.55,1018.08,1,0
2022-11-02 15:19:26,950,-121,-122,-45,8,-6,30,-16,58,31.8,33.55,1018.08,1,0
2022-11-02 15:19:26,1106,37,-68,-40,0,-16,31,-17,57,31.8,33.55,1018.08,1,0
2022-11-02 15:19:26,1106,37,-68,-40,0,-16,31,-17,57,31.8,33.55,1018.08,1,0
2022-11-02 15:19:26,1106,37,-68,-40,0,-16,31,-17,57,31.8,33.55,1018.08,1,0
2022-11-02 15:19:26,1106,37,-68,-40,0,-16,31,-17,57,31.8,33.55,1018.08,1,0
2022-11-02 15:19:26,966,-165,-64,-29,-4,-8,29,-18,53,31.8,33.55,1018.08,1,0
2022-11-02 15:19:26,966,-165,-64,-29,-4,-8,29,-18,53,31.8,33.55,1018.08,1,0
2022-11-02 15:19:26,966,-165,-64,-29,-4,-8,29,-18,53,31.8,33.55,1018.08,1,0
2022-11-02 15:19:26,966,-165,-64,-29,-4,-8,29,-18,53,31.8,33.55,1018.08,1,0
2022-11-02 15:19:26,987,-76,21,-45,6,-10,35,-17,53,31.8,33.55,1018.08,1,0
2022-11-02 15:19:26,987,-76,21,-45,6,-10,35,-17,53,31.8,33.55,1018.08,1,0
2022-11-02 15:19:26,987,-76,21,-45,6,-10,35,-17,53,31.8,33.55,1018.08,1,0
2022-11-02 15:19:26,987,-76,21,-45,6,-10,35,-17,53,31.8,33.55,1018.08,1,0
2022-11-02 15:19:26,999,31,56,-56,7,-5,33,-15,53,31.8,33.55,1018.08,1,0
2022-11-02 15:19:26,999,31,56,-56,7,-5,33,-15,53,31.8,33.55,1018.08,1,0
2022-11-02 15:19:26,999,31,56,-56,7,-5,33,-15,53,31.8,33.55,1018.08,1,0
2022-11-02 15:19:26,999,31,56,-56,7,-5,33,-15,53,31.8,33.55,1018.08,1,0
2022-11-02 15:19:27,1063,93,42,-61,3,-2,33,-15,48,31.8,33.55,1018.08,1,0
2022-11-02 15:19:27,1063,93,42,-61,3,-2,33,-15,48,31.8,33.55,1018.08,1,0
2022-11-02 15:19:27,1063,93,42,-61,3,-2,33,-15,48,31.8,33.55,1018.08,1,0
2022-11-02 15:19:27,1063,93,42,-61,3,-2,33,-15,48,31.8,33.55,1018.08,1,0
2022-11-02 15:19:27,1003,87,-25,-61,-1,1,35,-12,44,31.8,33.55,1018.08,1,0
2022-11-02 15:19:27,1003,87,-25,-61,-1,1,35,-12,44,31.8,33.55,1018.08,1,0
2022-11-02 15:19:27,1003,87,-25,-61,-1,1,35,-12,44,31.8,33.55,1018.08,1,0
2022-11-02 15:19:27,1003,87,-25,-61,-1,1,35,-12,44,31.8,33.55,1018.08,1,0
2022-11-02 15:19:27,1018,74,-15,-70,0,5,35,-13,52,31.8,33.55,1018.08,1,0
2022-11-02 15:19:27,1018,74,-15,-70,0,5,35,-13,52,31.8,33.55,1018.08,1,0
2022-11-02 15:19:27,1018,74,-15,-70,0,5,35,-13,52,31.8,33.55,1018.08,1,0
2022-11-02 15:19:27,1018,74,-15,-70,0,5,35,-13,52,31.8,33.55,1018.08,1,0
2022-11-02 15:19:27,1007,121,-27,-68,1,9,34,-13,43,31.8,33.55,1018.08,1,0
2022-11-02 15:19:27,1007,121,-27,-68,1,9,34,-13,43,31.8,33.55,1018.08,1,0
2022-11-02 15:19:27,1007,121,-27,-68,1,9,34,-13,43,31.8,33.55,1018.08,1,0
2022-11-02 15:19:27,1007,121,-27,-68,1,9,34,-13,43,31.8,33.55,1018.08,1,0
2022-11-02 15:19:27,1034,117,-19,-59,-1,6,36,-12,39,31.8,33.55,1018.08,1,0
2022-11-02 15:19:27,1034,117,-19,-59,-1,6,36,-12,39,31.8,33.55,1018.08,1,0
2022-11-02 15:19:27,1034,117,-19,-59,-1,6,36,-12,39,31.8,33.55,1018.08,1,0
2022-11-02 15:19:27,1034,117,-19,-59,-1,6,36,-12,39,31.8,33.55,1018.08,1,0
2022-11-02 15:19:27,1018,87,-33,-72,-15,0,35,-12,40,31.8,33.56,1018.02,1,0
2022-11-02 15:19:27,1018,87,-33,-72,-15,0,35,-12,40,31.8,33.56,1018.02,1,0
2022-11-02 15:19:27,1018,87,-33,-72,-15,0,35,-12,40,31.8,33.56,1018.02,1,0
2022-11-02 15:19:27,1018,87,-33,-72,-15,0,35,-12,40,31.8,33.56,1018.02,1,0
2022-11-02 15:19:27,995,-11,-27,-60,-2,5,33,-11,34,31.8,33.56,1018.02,1,0
2022-11-02 15:19:27,995,-11,-27,-60,-2,5,33,-11,34,31.8,33.56,1018.02,1,0
2022-11-02 15:19:27,995,-11,-27,-60,-2,5,33,-11,34,31.8,33.56,1018.02,1,0
2022-11-02 15:19:27,995,-11,-27,-60,-2,5,33,-11,34,31.8,33.56,1018.02,1,0
2022-11-02 15:19:27,1110,-111,-11,-60,-1,15,32,-8,30,31.8,33.56,1018.02,1,0
2022-11-02 15:19:27,1110,-111,-11,-60,-1,15,32,-8,30,31.8,33.56,1018.02,1,0
2022-11-02 15:19:27,1110,-111,-11,-60,-1,15,32,-8,30,31.8,33.56,1018.02,1,0
2022-11-02 15:19:27,1110,-111,-11,-60,-1,15,32,-8,30,31.8,33.56,1018.02,1,0
2022-11-02 15:19:27,952,-68,-48,-73,0,21,32,-5,27,31.8,33.56,1018.02,1,0
2022-11-02 15:19:27,952,-68,-48,-73,0,21,32,-5,27,31.8,33.56,1018.02,1,0
2022-11-02 15:19:27,952,-68,-48,-73,0,21,32,-5,27,31.8,33.56,1018.02,1,0
2022-11-02 15:19:27,952,-68,-48,-73,0,21,32,-5,27,31.8,33.56,1018.02,1,0
2022-11-02 15:19:27,1011,-144,-89,-66,4,14,31,-7,29,31.8,33.56,1018.02,1,0
2022-11-02 15:19:27,1011,-144,-89,-66,4,14,31,-7,29,31.8,33.56,1018.02,1,0
2022-11-02 15:19:27,1011,-144,-89,-66,4,14,31,-7,29,31.8,33.56,1018.02,1,0
2022-11-02 15:19:27,1011,-144,-89,-66,4,14,31,-7,29,31.8,33.56,1018.02,1,0
2022-11-02 15:19:28,981,-25,-121,-58,1,8,31,-4,24,31.8,33.56,1018.02,1,0
2022-11-02 15:19:28,981,-25,-121,-58,1,8,31,-4,24,31.8,33.56,1018.02,1,0
2022-11-02 15:19:28,981,-25,-121,-58,1,8,31,-4,24,31.8,33.56,1018.02,1,0
2022-11-02 15:19:28,981,-25,-121,-58,1,8,31,-4,24,31.8,33.56,1018.02,1,0
2022-11-02 15:19:28,970,-115,-132,-44,6,4,31,-1,23,31.8,33.56,1018.02,1,0
2022-11-02 15:19:28,970,-115,-132,-44,6,4,31,-1,23,31.8,33.56,1018.02,1,0
2022-11-02 15:19:28,970,-115,-132,-44,6,4,31,-1,23,31.8,33.56,1018.02,1,0
2022-11-02 15:19:28,970,-115,-132,-44,6,4,31,-1,23,31.8,33.56,1018.02,1,0
2022-11-02 15:19:28,977,-105,-142,-40,11,-3,32,0,24,31.8,33.56,1018.02,1,0
2022-11-02 15:19:28,977,-105,-142,-40,11,-3,32,0,24,31.8,33.56,1018.02,1,0
2022-11-02 15:19:28,977,-105,-142,-40,11,-3,32,0,24,31.8,33.56,1018.02,1,0
2022-11-02 15:19:28,977,-105,-142,-40,11,-3,32,0,24,31.8,33.56,1018.02,1,0
2022-11-02 15:19:28,1036,-111,-119,-30,10,-6,32,2,22,31.8,33.56,1018.02,1,0
2022-11-02 15:19:28,1036,-111,-119,-30,10,-6,32,2,22,31.8,33.56,1018.02,1,0
2022-11-02 15:19:28,1036,-111,-119,-30,10,-6,32,2,22,31.8,33.56,1018.02,1,0
2022-11-02 15:19:28,1036,-111,-119,-30,10,-6,32,2,22,31.8,33.56,1018.02,1,0
2022-11-02 15:19:28,1132,19,-101,-21,0,-7,34,3,26,31.8,33.56,1018.02,1,0
2022-11-02 15:19:28,1132,19,-101,-21,0,-7,34,3,26,31.8,33.56,1018.02,1,0
2022-11-02 15:19:28,1132,19,-101,-21,0,-7,34,3,26,31.8,33.56,1018.02,1,0
2022-11-02 15:19:28,1132,19,-101,-21,0,-7,34,3,26,31.8,33.56,1018.02,1,0
2022-11-02 15:19:28,942,-134,-76,-20,-6,0,34,7,17,31.8,33.58,1018.13,1,0
2022-11-02 15:19:28,942,-134,-76,-20,-6,0,34,7,17,31.8,33.58,1018.13,1,0
2022-11-02 15:19:28,942,-134,-76,-20,-6,0,34,7,17,31.8,33.58,1018.13,1,0
2022-11-02 15:19:28,942,-134,-76,-20,-6,0,34,7,17,31.8,33.58,1018.13,1,0
2022-11-02 15:19:28,1001,-62,-19,-28,5,-8,34,7,22,31.8,33.58,1018.13,1,0
2022-11-02 15:19:28,1001,-62,-19,-28,5,-8,34,7,22,31.8,33.58,1018.13,1,0
2022-11-02 15:19:28,1001,-62,-19,-28,5,-8,34,7,22,31.8,33.58,1018.13,1,0
2022-11-02 15:19:28,1001,-62,-19,-28,5,-8,34,7,22,31.8,33.58,1018.13,1,0
2022-11-02 15:19:28,993,5,25,-39,3,-6,32,6,20,31.8,33.58,1018.13,1,0
2022-11-02 15:19:28,993,5,25,-39,3,-6,32,6,20,31.8,33.58,1018.13,1,0
2022-11-02 15:19:28,993,5,25,-39,3,-6,32,6,20,31.8,33.58,1018.13,1,0
2022-11-02 15:19:28,993,5,25,-39,3,-6,32,6,20,31.8,33.58,1018.13,1,0
2022-11-02 15:19:28,1040,66,25,-37,4,-5,34,12,24,31.8,33.58,1018.13,1,0
2022-11-02 15:19:28,1040,66,25,-37,4,-5,34,12,24,31.8,33.58,1018.13,1,0
2022-11-02 15:19:28,1040,66,25,-37,4,-5,34,12,24,31.8,33.58,1018.13,1,0
2022-11-02 15:19:28,1040,66,25,-37,4,-5,34,12,24,31.8,33.58,1018.13,1,0
2022-11-02 15:19:28,999,107,15,-42,5,-5,35,11,18,31.8,33.58,1018.13,1,0
2022-11-02 15:19:28,999,107,15,-42,5,-5,35,11,18,31.8,33.58,1018.13,1,0
2022-11-02 15:19:28,999,107,15,-42,5,-5,35,11,18,31.8,33.58,1018.13,1,0
2022-11-02 15:19:28,999,107,15,-42,5,-5,35,11,18,31.8,33.58,1018.13,1,0
2022-11-02 15:19:29,1013,87,-1,-40,4,-3,35,14,22,31.8,33.58,1018.13,1,0
2022-11-02 15:19:29,1013,87,-1,-40,4,-3,35,14,22,31.8,33.58,1018.13,1,0
2022-11-02 15:19:29,1013,87,-1,-40,4,-3,35,14,22,31.8,33.58,1018.13,1,0
2022-11-02 15:19:29,1013,87,-1,-40,4,-3,35,14,22,31.8,33.58,1018.13,1,0
2022-11-02 15:19:29,995,117,-21,-36,2,2,36,15,20,31.8,33.58,1018.13,1,0
2022-11-02 15:19:29,995,117,-21,-36,2,2,36,15,20,31.8,33.58,1018.13,1,0
2022-11-02 15:19:29,995,117,-21,-36,2,2,36,15,20,31.8,33.58,1018.13,1,0
2022-11-02 15:19:29,995,117,-21,-36,2,2,36,15,20,31.8,33.58,1018.13,1,0
2022-11-02 15:19:29,1013,107,-21,-30,2,8,36,20,19,31.8,33.58,1018.13,1,0
2022-11-02 15:19:29,1013,107,-21,-30,2,8,36,20,19,31.8,33.58,1018.13,1,0
2022-11-02 15:19:29,1013,107,-21,-30,2,8,36,20,19,31.8,33.58,1018.13,1,0
2022-11-02 15:19:29,1013,107,-21,-30,2,8,36,20,19,31.8,33.58,1018.13,1,0
2022-11-02 15:19:29,1024,68,-23,-33,-1,12,35,22,25,31.8,33.58,1018.13,1,0
2022-11-02 15:19:29,1024,68,-23,-33,-1,12,35,22,25,31.8,33.58,1018.13,1,0
2022-11-02 15:19:29,1024,68,-23,-33,-1,12,35,22,25,31.8,33.58,1018.13,1,0
2022-11-02 15:19:29,1024,68,-23,-33,-1,12,35,22,25,31.8,33.58,1018.13,1,0
2022-11-02 15:19:29,1040,72,-27,-39,-3,6,37,22,17,31.8,33.58,1018.13,1,0
2022-11-02 15:19:29,1040,72,-27,-39,-3,6,37,22,17,31.8,33.58,1018.13,1,0
2022-11-02 15:19:29,1040,72,-27,-39,-3,6,37,22,17,31.8,33.58,1018.13,1,0
2022-11-02 15:19:29,1040,72,-27,-39,-3,6,37,22,17,31.8,33.58,1018.13,1,0
2022-11-02 15:19:29,1177,117,-11,-25,5,-3,38,21,17,31.8,33.59,1018.15,1,0
2022-11-02 15:19:29,1177,117,-11,-25,5,-3,38,21,17,31.8,33.59,1018.15,1,0
2022-11-02 15:19:29,1177,117,-11,-25,5,-3,38,21,17,31.8,33.59,1018.15,1,0
2022-11-02 15:19:29,1177,117,-11,-25,5,-3,38,21,17,31.8,33.59,1018.15,1,0
2022-11-02 15:19:29,895,-9,-42,-18,-8,6,40,24,20,31.8,33.59,1018.15,1,0
2022-11-02 15:19:29,895,-9,-42,-18,-8,6,40,24,20,31.8,33.59,1018.15,1,0
2022-11-02 15:19:29,895,-9,-42,-18,-8,6,40,24,20,31.8,33.59,1018.15,1,0
2022-11-02 15:19:29,895,-9,-42,-18,-8,6,40,24,20,31.8,33.59,1018.15,1,0
2022-11-02 15:19:29,1042,-66,37,0,0,0,37,25,19,31.8,33.59,1018.15,1,0
2022-11-02 15:19:29,1042,-66,37,0,0,0,37,25,19,31.8,33.59,1018.15,1,0
2022-11-02 15:19:29,1042,-66,37,0,0,0,37,25,19,31.8,33.59,1018.15,1,0
2022-11-02 15:19:29,1042,-66,37,0,0,0,37,25,19,31.8,33.59,1018.15,1,0
2022-11-02 15:19:29,1022,-101,-5,-9,-4,7,36,26,20,31.8,33.59,1018.15,1,0
2022-11-02 15:19:29,1022,-101,-5,-9,-4,7,36,26,20,31.8,33.59,1018.15,1,0
2022-11-02 15:19:29,1022,-101,-5,-9,-4,7,36,26,20,31.8,33.59,1018.15,1,0
2022-11-02 15:19:29,1022,-101,-5,-9,-4,7,36,26,20,31.8,33.59,1018.15,1,0
2022-11-02 15:19:29,1024,0,-72,18,-10,3,37,25,17,31.8,33.59,1018.15,1,0
2022-11-02 15:19:29,1024,0,-72,18,-10,3,37,25,17,31.8,33.59,1018.15,1,0
2022-11-02 15:19:29,1024,0,-72,18,-10,3,37,25,17,31.8,33.59,1018.15,1,0
2022-11-02 15:19:29,1024,0,-72,18,-10,3,37,25,17,31.8,33.59,1018.15,1,0
2022-11-02 15:19:30,1001,-93,-60,23,-9,3,40,26,14,31.8,33.59,1018.15,1,0
2022-11-02 15:19:30,1001,-93,-60,23,-9,3,40,26,14,31.8,33.59,1018.15,1,0
2022-11-02 15:19:30,1001,-93,-60,23,-9,3,40,26,14,31.8,33.59,1018.15,1,0
2022-11-02 15:19:30,1001,-93,-60,23,-9,3,40,26,14,31.8,33.59,1018.15,1,0
2022-11-02 15:19:30,960,-15,-111,24,-5,-1,38,24,14,31.8,33.59,1018.15,1,0
2022-11-02 15:19:30,960,-15,-111,24,-5,-1,38,24,14,31.8,33.59,1018.15,1,0
2022-11-02 15:19:30,960,-15,-111,24,-5,-1,38,24,14,31.8,33.59,1018.15,1,0
2022-11-02 15:19:30,960,-15,-111,24,-5,-1,38,24,14,31.8,33.59,1018.15,1,0
2022-11-02 15:19:30,989,-64,-97,31,5,-7,37,21,15,31.8,33.59,1018.15,1,0
2022-11-02 15:19:30,989,-64,-97,31,5,-7,37,21,15,31.8,33.59,1018.15,1,0
2022-11-02 15:19:30,989,-64,-97,31,5,-7,37,21,15,31.8,33.59,1018.15,1,0
2022-11-02 15:19:30,989,-64,-97,31,5,-7,37,21,15,31.8,33.59,1018.15,1,0
2022-11-02 15:19:30,997,-25,-109,21,7,-7,36,18,12,31.8,33.59,1018.15,1,0
2022-11-02 15:19:30,997,-25,-109,21,7,-7,36,18,12,31.8,33.59,1018.15,1,0
2022-11-02 15:19:30,997,-25,-109,21,7,-7,36,18,12,31.8,33.59,1018.15,1,0
2022-11-02 15:19:30,997,-25,-109,21,7,-7,36,18,12,31.8,33.59,1018.15,1,0
2022-11-02 15:19:30,1069,76,-124,39,1,-12,36,18,8,31.8,33.59,1018.15,1,0
2022-11-02 15:19:30,1069,76,-124,39,1,-12,36,18,8,31.8,33.59,1018.15,1,0
2022-11-02 15:19:30,1069,76,-124,39,1,-12,36,18,8,31.8,33.59,1018.15,1,0
2022-11-02 15:19:30,1069,76,-124,39,1,-12,36,18,8,31.8,33.59,1018.15,1,0
2022-11-02 15:19:30,1233,-148,40,43,5,3,37,19,9,31.8,33.58,1018.06,1,0
2022-11-02 15:19:30,1233,-148,40,43,5,3,37,19,9,31.8,33.58,1018.06,1,0
2022-11-02 15:19:30,1233,-148,40,43,5,3,37,19,9,31.8,33.58,1018.06,1,0
2022-11-02 15:19:30,1233,-148,40,43,5,3,37,19,9,31.8,33.58,1018.06,1,0
2022-11-02 15:19:30,944,60,-42,42,4,-7,37,15,15,31.8,33.58,1018.06,1,0
2022-11-02 15:19:30,944,60,-42,42,4,-7,37,15,15,31.8,33.58,1018.06,1,0
2022-11-02 15:19:30,944,60,-42,42,4,-7,37,15,15,31.8,33.58,1018.06,1,0
2022-11-02 15:19:30,944,60,-42,42,4,-7,37,15,15,31.8,33.58,1018.06,1,0
2022-11-02 15:19:30,989,-19,25,35,2,-6,35,13,5,31.8,33.58,1018.06,1,0
2022-11-02 15:19:30,989,-19,25,35,2,-6,35,13,5,31.8,33.58,1018.06,1,0
2022-11-02 15:19:30,989,-19,25,35,2,-6,35,13,5,31.8,33.58,1018.06,1,0
2022-11-02 15:19:30,989,-19,25,35,2,-6,35,13,5,31.8,33.58,1018.06,1,0
2022-11-02 15:19:30,1032,72,81,35,11,-4,36,9,7,31.8,33.58,1018.06,1,0
2022-11-02 15:19:30,1032,72,81,35,11,-4,36,9,7,31.8,33.58,1018.06,1,0
2022-11-02 15:19:30,1032,72,81,35,11,-4,36,9,7,31.8,33.58,1018.06,1,0
2022-11-02 15:19:30,1032,72,81,35,11,-4,36,9,7,31.8,33.58,1018.06,1,0
2022-11-02 15:19:30,1007,99,-5,20,4,-15,37,8,10,31.8,33.58,1018.06,1,0
2022-11-02 15:19:30,1007,99,-5,20,4,-15,37,8,10,31.8,33.58,1018.06,1,0
2022-11-02 15:19:30,1007,99,-5,20,4,-15,37,8,10,31.8,33.58,1018.06,1,0
2022-11-02 15:19:30,1007,99,-5,20,4,-15,37,8,10,31.8,33.58,1018.06,1,0
2022-11-02 15:19:31,993,148,7,26,5,-4,37,7,9,31.8,33.58,1018.06,1,0
2022-11-02 15:19:31,993,148,7,26,5,-4,37,7,9,31.8,33.58,1018.06,1,0
2022-11-02 15:19:31,993,148,7,26,5,-4,37,7,9,31.8,33.58,1018.06,1,0
2022-11-02 15:19:31,993,148,7,26,5,-4,37,7,9,31.8,33.58,1018.06,1,0
2022-11-02 15:19:31,987,124,11,25,2,1,38,7,6,31.8,33.58,1018.06,1,0
2022-11-02 15:19:31,987,124,11,25,2,1,38,7,6,31.8,33.58,1018.06,1,0
2022-11-02 15:19:31,987,124,11,25,2,1,38,7,6,31.8,33.58,1018.06,1,0
2022-11-02 15:19:31,987,124,11,25,2,1,38,7,6,31.8,33.58,1018.06,1,0
2022-11-02 15:19:31,1015,119,5,13,0,10,40,4,9,31.8,33.58,1018.06,1,0
2022-11-02 15:19:31,1015,119,5,13,0,10,40,4,9,31.8,33.58,1018.06,1,0
2022-11-02 15:19:31,1015,119,5,13,0,10,40,4,9,31.8,33.58,1018.06,1,0
2022-11-02 15:19:31,1015,119,5,13,0,10,40,4,9,31.8,33.58,1018.06,1,0
2022-11-02 15:19:31,1007,91,37,0,-3,14,38,3,6,31.8,33.58,1018.06,1,0
2022-11-02 15:19:31,1007,91,37,0,-3,14,38,3,6,31.8,33.58,1018.06,1,0
2022-11-02 15:19:31,1007,91,37,0,-3,14,38,3,6,31.8,33.58,1018.06,1,0
2022-11-02 15:19:31,1007,91,37,0,-3,14,38,3,6,31.8,33.58,1018.06,1,0
2022-11-02 15:19:31,1081,23,-11,-11,-2,5,37,2,7,31.8,33.58,1018.06,1,0
2022-11-02 15:19:31,1081,23,-11,-11,-2,5,37,2,7,31.8,33.58,1018.06,1,0
2022-11-02 15:19:31,1081,23,-11,-11,-2,5,37,2,7,31.8,33.58,1018.06,1,0
2022-11-02 15:19:31,1081,23,-11,-11,-2,5,37,2,7,31.8,33.58,1018.06,1,0
2022-11-02 15:19:31,1175,117,124,14,5,0,35,0,3,31.8,33.58,1018.08,1,0
2022-11-02 15:19:31,1175,117,124,14,5,0,35,0,3,31.8,33.58,1018.08,1,0
2022-11-02 15:19:31,1175,117,124,14,5,0,35,0,3,31.8,33.58,1018.08,1,0
2022-11-02 15:19:31,1175,117,124,14,5,0,35,0,3,31.8,33.58,1018.08,1,0
2022-11-02 15:19:31,985,58,5,16,-19,6,36,3,6,31.8,33.58,1018.08,1,0
2022-11-02 15:19:31,985,58,5,16,-19,6,36,3,6,31.8,33.58,1018.08,1,0
2022-11-02 15:19:31,985,58,5,16,-19,6,36,3,6,31.8,33.58,1018.08,1,0
2022-11-02 15:19:31,985,58,5,16,-19,6,36,3,6,31.8,33.58,1018.08,1,0
2022-11-02 15:19:31,1024,-201,-56,27,-16,6,36,-1,6,31.8,33.58,1018.08,1,0
2022-11-02 15:19:31,1024,-201,-56,27,-16,6,36,-1,6,31.8,33.58,1018.08,1,0
2022-11-02 15:19:31,1024,-201,-56,27,-16,6,36,-1,6,31.8,33.58,1018.08,1,0
2022-11-02 15:19:31,1024,-201,-56,27,-16,6,36,-1,6,31.8,33.58,1018.08,1,0
2022-11-02 15:19:31,1007,0,-140,26,-13,6,34,-3,4,31.8,33.58,1018.08,1,0
2022-11-02 15:19:31,1007,0,-140,26,-13,6,34,-3,4,31.8,33.58,1018.08,1,0
2022-11-02 15:19:31,1007,0,-140,26,-13,6,34,-3,4,31.8,33.58,1018.08,1,0
2022-11-02 15:19:31,1007,0,-140,26,-13,6,34,-3,4,31.8,33.58,1018.08,1,0
2022-11-02 15:19:31,964,-111,-87,35,-5,4,34,-2,0,31.8,33.58,1018.08,1,0
2022-11-02 15:19:31,964,-111,-87,35,-5,4,34,-2,0,31.8,33.58,1018.08,1,0
2022-11-02 15:19:31,964,-111,-87,35,-5,4,34,-2,0,31.8,33.58,1018.08,1,0
2022-11-02 15:19:31,964,-111,-87,35,-5,4,34,-2,0,31.8,33.58,1018.08,1,0
2022-11-02 15:19:32,956,-74,-140,29,1,-1,32,-8,2,31.8,33.58,1018.08,1,0
2022-11-02 15:19:32,956,-74,-140,29,1,-1,32,-8,2,31.8,33.58,1018.08,1,0
2022-11-02 15:19:32,956,-74,-140,29,1,-1,32,-8,2,31.8,33.58,1018.08,1,0
2022-11-02 15:19:32,956,-74,-140,29,1,-1,32,-8,2,31.8,33.58,1018.08,1,0
2022-11-02 15:19:32,1007,-52,-128,25,5,-5,32,-10,3,31.8,33.58,1018.08,1,0
2022-11-02 15:19:32,1007,-52,-128,25,5,-5,32,-10,3,31.8,33.58,1018.08,1,0
2022-11-02 15:19:32,1007,-52,-128,25,5,-5,32,-10,3,31.8,33.58,1018.08,1,0
2022-11-02 15:19:32,1007,-52,-128,25,5,-5,32,-10,3,31.8,33.58,1018.08,1,0
2022-11-02 15:19:32,1003,-52,-115,27,7,-9,32,-13,7,31.8,33.58,1018.08,1,0
2022-11-02 15:19:32,1003,-52,-115,27,7,-9,32,-13,7,31.8,33.58,1018.08,1,0
2022-11-02 15:19:32,1003,-52,-115,27,7,-9,32,-13,7,31.8,33.58,1018.08,1,0
2022-11-02 15:19:32,1003,-52,-115,27,7,-9,32,-13,7,31.8,33.58,1018.08,1,0
2022-11-02 15:19:32,1030,87,-191,34,0,-19,33,-14,7,31.8,33.58,1018.08,1,0
2022-11-02 15:19:32,1030,87,-191,34,0,-19,33,-14,7,31.8,33.58,1018.08,1,0
2022-11-02 15:19:32,1030,87,-191,34,0,-19,33,-14,7,31.8,33.58,1018.08,1,0
2022-11-02 15:19:32,1030,87,-191,34,0,-19,33,-14,7,31.8,33.58,1018.08,1,0
2022-11-02 15:19:32,1264,-162,80,34,10,5,33,-17,10,31.8,33.58,1018.08,1,0
2022-11-02 15:19:32,1264,-162,80,34,10,5,33,-17,10,31.8,33.58,1018.08,1,0
2022-11-02 15:19:32,1264,-162,80,34,10,5,33,-17,10,31.8,33.58,1018.08,1,0
2022-11-02 15:19:32,1264,-162,80,34,10,5,33,-17,10,31.8,33.58,1018.08,1,0
2022-11-02 15:19:32,907,64,-37,30,1,-13,33,-19,6,31.8,33.59,1018.05,1,0
2022-11-02 15:19:32,907,64,-37,30,1,-13,33,-19,6,31.8,33.59,1018.05,1,0
2022-11-02 15:19:32,907,64,-37,30,1,-13,33,-19,6,31.8,33.59,1018.05,1,0
2022-11-02 15:19:32,907,64,-37,30,1,-13,33,-19,6,31.8,33.59,1018.05,1,0
2022-11-02 15:19:32,983,1,93,22,4,-8,33,-19,11,31.8,33.59,1018.05,1,0
2022-11-02 15:19:32,983,1,93,22,4,-8,33,-19,11,31.8,33.59,1018.05,1,0
2022-11-02 15:19:32,983,1,93,22,4,-8,33,-19,11,31.8,33.59,1018.05,1,0
2022-11-02 15:19:32,983,1,93,22,4,-8,33,-19,11,31.8,33.59,1018.05,1,0
2022-11-02 15:19:32,1030,42,23,3,4,-12,34,-22,10,31.8,33.59,1018.05,1,0
2022-11-02 15:19:32,1030,42,23,3,4,-12,34,-22,10,31.8,33.59,1018.05,1,0
2022-11-02 15:19:32,1030,42,23,3,4,-12,34,-22,10,31.8,33.59,1018.05,1,0
2022-11-02 15:19:32,1030,42,23,3,4,-12,34,-22,10,31.8,33.59,1018.05,1,0
2022-11-02 15:19:32,993,105,21,-1,6,-10,35,-23,13,31.8,33.59,1018.05,1,0
2022-11-02 15:19:32,993,105,21,-1,6,-10,35,-23,13,31.8,33.59,1018.05,1,0
2022-11-02 15:19:32,993,105,21,-1,6,-10,35,-23,13,31.8,33.59,1018.05,1,0
2022-11-02 15:19:32,993,105,21,-1,6,-10,35,-23,13,31.8,33.59,1018.05,1,0
2022-11-02 15:19:32,995,122,-15,-3,7,-1,36,-22,14,31.8,33.59,1018.05,1,0
2022-11-02 15:19:32,995,122,-15,-3,7,-1,36,-22,14,31.8,33.59,1018.05,1,0
2022-11-02 15:19:32,995,122,-15,-3,7,-1,36,-22,14,31.8,33.59,1018.05,1,0
2022-11-02 15:19:32,995,122,-15,-3,7,-1,36,-22,14,31.8,33.59,1018.05,1,0
2022-11-02 15:19:33,1018,111,-13,-10,2,6,36,-20,19,31.8,33.59,1018.05,1,0
2022-11-02 15:19:33,1018,111,-13,-10,2,6,36,-20,19,31.8,33.59,1018.05,1,0
2022-11-02 15:19:33,1018,111,-13,-10,2,6,36,-20,19,31.8,33.59,1018.05,1,0
2022-11-02 15:19:33,1018,111,-13,-10,2,6,36,-20,19,31.8,33.59,1018.05,1,0
2022-11-02 15:19:33,1022,121,-11,-14,-2,12,36,-21,15,31.8,33.59,1018.05,1,0
2022-11-02 15:19:33,1022,121,-11,-14,-2,12,36,-21,15,31.8,33.59,1018.05,1,0
2022-11-02 15:19:33,1022,121,-11,-14,-2,12,36,-21,15,31.8,33.59,1018.05,1,0
2022-11-02 15:19:33,1022,121,-11,-14,-2,12,36,-21,15,31.8,33.59,1018.05,1,0
2022-11-02 15:19:33,1011,89,-11,-25,-4,9,36,-18,14,31.8,33.59,1018.05,1,0
2022-11-02 15:19:33,1011,89,-11,-25,-4,9,36,-18,14,31.8,33.59,1018.05,1,0
2022-11-02 15:19:33,1011,89,-11,-25,-4,9,36,-18,14,31.8,33.59,1018.05,1,0
2022-11-02 15:19:33,1011,89,-11,-25,-4,9,36,-18,14,31.8,33.59,1018.05,1,0
2022-11-02 15:19:33,1175,78,-17,-36,-2,4,33,-19,13,31.8,33.59,1018.05,1,0
2022-11-02 15:19:33,1175,78,-17,-36,-2,4,33,-19,13,31.8,33.59,1018.05,1,0
2022-11-02 15:19:33,1175,78,-17,-36,-2,4,33,-19,13,31.8,33.59,1018.05,1,0
2022-11-02 15:19:33,1175,78,-17,-36,-2,4,33,-19,13,31.8,33.59,1018.05,1,0
2022-11-02 15:19:33,989,-40,89,-20,-4,0,33,-17,9,31.8,33.59,1018.05,1,0
2022-11-02 15:19:33,989,-40,89,-20,-4,0,33,-17,9,31.8,33.59,1018.05,1,0
2022-11-02 15:19:33,989,-40,89,-20,-4,0,33,-17,9,31.8,33.59,1018.05,1,0
2022-11-02 15:19:33,989,-40,89,-20,-4,0,33,-17,9,31.8,33.59,1018.05,1,0
2022-11-02 15:19:33,977,25,-5,-10,-7,7,34,-18,7,31.8,33.59,1018.06,1,0
2022-11-02 15:19:33,977,25,-5,-10,-7,7,34,-18,7,31.8,33.59,1018.06,1,0
2022-11-02 15:19:33,977,25,-5,-10,-7,7,34,-18,7,31.8,33.59,1018.06,1,0
2022-11-02 15:19:33,977,25,-5,-10,-7,7,34,-18,7,31.8,33.59,1018.06,1,0
2022-11-02 15:19:33,1081,-113,-46,-9,-10,5,32,-14,9,31.8,33.59,1018.06,1,0
2022-11-02 15:19:33,1081,-113,-46,-9,-10,5,32,-14,9,31.8,33.59,1018.06,1,0
2022-11-02 15:19:33,1081,-113,-46,-9,-10,5,32,-14,9,31.8,33.59,1018.06,1,0
2022-11-02 15:19:33,1081,-113,-46,-9,-10,5,32,-14,9,31.8,33.59,1018.06,1,0
2022-11-02 15:19:33,981,-13,-95,19,-11,3,31,-16,7,31.8,33.59,1018.06,1,0
2022-11-02 15:19:33,981,-13,-95,19,-11,3,31,-16,7,31.8,33.59,1018.06,1,0
2022-11-02 15:19:33,981,-13,-95,19,-11,3,31,-16,7,31.8,33.59,1018.06,1,0
2022-11-02 15:19:33,981,-13,-95,19,-11,3,31,-16,7,31.8,33.59,1018.06,1,0
2022-11-02 15:19:33,974,-74,-85,16,-6,6,32,-17,8,31.8,33.59,1018.06,1,0
2022-11-02 15:19:33,974,-74,-85,16,-6,6,32,-17,8,31.8,33.59,1018.06,1,0
2022-11-02 15:19:33,974,-74,-85,16,-6,6,32,-17,8,31.8,33.59,1018.06,1,0
2022-11-02 15:19:33,974,-74,-85,16,-6,6,32,-17,8,31.8,33.59,1018.06,1,0
2022-11-02 15:19:33,944,-15,-136,21,-3,-3,31,-20,1,31.8,33.59,1018.06,1,0
2022-11-02 15:19:33,944,-15,-136,21,-3,-3,31,-20,1,31.8,33.59,1018.06,1,0
2022-11-02 15:19:33,944,-15,-136,21,-3,-3,31,-20,1,31.8,33.59,1018.06,1,0
2022-11-02 15:19:33,944,-15,-136,21,-3,-3,31,-20,1,31.8,33.59,1018.06,1,0
2022-11-02 15:19:34,1007,-23,-130,22,6,-5,29,-19,6,31.8,33.59,1018.06,1,0
2022-11-02 15:19:34,1007,-23,-130,22,6,-5,29,-19,6,31.8,33.59,1018.06,1,0
2022-11-02 15:19:34,1007,-23,-130,22,6,-5,29,-19,6,31.8,33.59,1018.06,1,0
2022-11-02 15:19:34,1007,-23,-130,22,6,-5,29,-19,6,31.8,33.59,1018.06,1,0
2022-11-02 15:19:34,1024,-5,-130,30,3,-10,29,-24,5,31.8,33.59,1018.06,1,0
2022-11-02 15:19:34,1024,-5,-130,30,3,-10,29,-24,5,31.8,33.59,1018.06,1,0
2022-11-02 15:19:34,1024,-5,-130,30,3,-10,29,-24,5,31.8,33.59,1018.06,1,0
2022-11-02 15:19:34,1024,-5,-130,30,3,-10,29,-24,5,31.8,33.59,1018.06,1,0
2022-11-02 15:19:34,1165,37,-60,43,0,-8,32,-24,8,31.8,33.59,1018.06,1,0
2022-11-02 15:19:34,1165,37,-60,43,0,-8,32,-24,8,31.8,33.59,1018.06,1,0
2022-11-02 15:19:34,1165,37,-60,43,0,-8,32,-24,8,31.8,33.59,1018.06,1,0
2022-11-02 15:19:34,1165,37,-60,43,0,-8,32,-24,8,31.8,33.59,1018.06,1,0
2022-11-02 15:19:34,935,-91,-42,21,-7,0,32,-26,11,31.8,33.59,1018.06,1,0
2022-11-02 15:19:34,935,-91,-42,21,-7,0,32,-26,11,31.8,33.59,1018.06,1,0
2022-11-02 15:19:34,935,-91,-42,21,-7,0,32,-26,11,31.8,33.59,1018.06,1,0
2022-11-02 15:19:34,935,-91,-42,21,-7,0,32,-26,11,31.8,33.59,1018.06,1,0
2022-11-02 15:19:34,1016,-85,29,33,13,-6,34,-26,16,31.8,33.59,1018.06,1,0
2022-11-02 15:19:34,1016,-85,29,33,13,-6,34,-26,16,31.8,33.59,1018.06,1,0
2022-11-02 15:19:34,1016,-85,29,33,13,-6,34,-26,16,31.8,33.59,1018.06,1,0
2022-11-02 15:19:34,1016,-85,29,33,13,-6,34,-26,16,31.8,33.59,1018.06,1,0
2022-11-02 15:19:34,997,-9,-3,10,5,-6,32,-29,16,31.8,33.59,1018.13,1,0
2022-11-02 15:19:34,997,-9,-3,10,5,-6,32,-29,16,31.8,33.59,1018.13,1,0
2022-11-02 15:19:34,997,-9,-3,10,5,-6,32,-29,16,31.8,33.59,1018.13,1,0
2022-11-02 15:19:34,997,-9,-3,10,5,-6,32,-29,16,31.8,33.59,1018.13,1,0
2022-11-02 15:19:34,1048,46,46,5,6,-5,31,-28,17,31.8,33.59,1018.13,1,0
2022-11-02 15:19:34,1048,46,46,5,6,-5,31,-28,17,31.8,33.59,1018.13,1,0
2022-11-02 15:19:34,1048,46,46,5,6,-5,31,-28,17,31.8,33.59,1018.13,1,0
2022-11-02 15:19:34,1048,46,46,5,6,-5,31,-28,17,31.8,33.59,1018.13,1,0
2022-11-02 15:19:34,983,87,-21,-9,1,-13,32,-31,17,31.8,33.59,1018.13,1,0
2022-11-02 15:19:34,983,87,-21,-9,1,-13,32,-31,17,31.8,33.59,1018.13,1,0
2022-11-02 15:19:34,983,87,-21,-9,1,-13,32,-31,17,31.8,33.59,1018.13,1,0
2022-11-02 15:19:34,983,87,-21,-9,1,-13,32,-31,17,31.8,33.59,1018.13,1,0
2022-11-02 15:19:34,1018,115,-19,-10,6,-1,35,-28,19,31.8,33.59,1018.13,1,0
2022-11-02 15:19:34,1018,115,-19,-10,6,-1,35,-28,19,31.8,33.59,1018.13,1,0
2022-11-02 15:19:34,1018,115,-19,-10,6,-1,35,-28,19,31.8,33.59,1018.13,1,0
2022-11-02 15:19:34,1018,115,-19,-10,6,-1,35,-28,19,31.8,33.59,1018.13,1,0
2022-11-02 15:19:34,1007,97,-9,-12,4,2,32,-31,18,31.8,33.59,1018.13,1,0
2022-11-02 15:19:34,1007,97,-9,-12,4,2,32,-31,18,31.8,33.59,1018.13,1,0
2022-11-02 15:19:34,1007,97,-9,-12,4,2,32,-31,18,31.8,33.59,1018.13,1,0
2022-11-02 15:19:34,1007,97,-9,-12,4,2,32,-31,18,31.8,33.59,1018.13,1,0
2022-11-02 15:19:35,1015,97,-5,-23,0,9,32,-26,17,31.8,33.59,1018.13,1,0
2022-11-02 15:19:35,1015,97,-5,-23,0,9,32,-26,17,31.8,33.59,1018.13,1,0
2022-11-02 15:19:35,1015,97,-5,-23,0,9,32,-26,17,31.8,33.59,1018.13,1,0
2022-11-02 15:19:35,1015,97,-5,-23,0,9,32,-26,17,31.8,33.59,1018.13,1,0
2022-11-02 15:19:35,1011,93,-7,-31,-4,10,34,-28,16,31.8,33.59,1018.13,1,0
2022-11-02 15:19:35,1011,93,-7,-31,-4,10,34,-28,16,31.8,33.59,1018.13,1,0
2022-11-02 15:19:35,1011,93,-7,-31,-4,10,34,-28,16,31.8,33.59,1018.13,1,0
2022-11-02 15:19:35,1011,93,-7,-31,-4,10,34,-28,16,31.8,33.59,1018.13,1,0
2022-11-02 15:19:35,1075,85,-19,-47,-6,3,34,-28,15,31.8,33.59,1018.13,1,0
2022-11-02 15:19:35,1075,85,-19,-47,-6,3,34,-28,15,31.8,33.59,1018.13,1,0
2022-11-02 15:19:35,1075,85,-19,-47,-6,3,34,-28,15,31.8,33.59,1018.13,1,0
2022-11-02 15:19:35,1075,85,-19,-47,-6,3,34,-28,15,31.8,33.59,1018.13,1,0
2022-11-02 15:19:35,1141,103,56,-22,7,-5,33,-26,9,31.8,33.59,1018.13,1,0
2022-11-02 15:19:35,1141,103,56,-22,7,-5,33,-26,9,31.8,33.59,1018.13,1,0
2022-11-02 15:19:35,1141,103,56,-22,7,-5,33,-26,9,31.8,33.59,1018.13,1,0
2022-11-02 15:19:35,1141,103,56,-22,7,-5,33,-26,9,31.8,33.59,1018.13,1,0
2022-11-02 15:19:35,958,33,-13,-28,-7,13,31,-24,9,31.8,33.59,1018.13,1,0
2022-11-02 15:19:35,958,33,-13,-28,-7,13,31,-24,9,31.8,33.59,1018.13,1,0
2022-11-02 15:19:35,958,33,-13,-28,-7,13,31,-24,9,31.8,33.59,1018.13,1,0
2022-11-02 15:19:35,958,33,-13,-28,-7,13,31,-24,9,31.8,33.59,1018.13,1,0
2022-11-02 15:19:35,989,-162,-9,-17,1,10,34,-19,8,31.8,33.59,1018.08,1,0
2022-11-02 15:19:35,989,-162,-9,-17,1,10,34,-19,8,31.8,33.59,1018.08,1,0
2022-11-02 15:19:35,989,-162,-9,-17,1,10,34,-19,8,31.8,33.59,1018.08,1,0
2022-11-02 15:19:35,989,-162,-9,-17,1,10,34,-19,8,31.8,33.59,1018.08,1,0
2022-11-02 15:19:35,1083,62,-121,-12,-11,6,31,-20,6,31.8,33.59,1018.08,1,0
2022-11-02 15:19:35,1083,62,-121,-12,-11,6,31,-20,6,31.8,33.59,1018.08,1,0
2022-11-02 15:19:35,1083,62,-121,-12,-11,6,31,-20,6,31.8,33.59,1018.08,1,0
2022-11-02 15:19:35,1083,62,-121,-12,-11,6,31,-20,6,31.8,33.59,1018.08,1,0
2022-11-02 15:19:35,954,-89,-97,19,-9,2,29,-22,3,31.8,33.59,1018.08,1,0
2022-11-02 15:19:35,954,-89,-97,19,-9,2,29,-22,3,31.8,33.59,1018.08,1,0
2022-11-02 15:19:35,954,-89,-97,19,-9,2,29,-22,3,31.8,33.59,1018.08,1,0
2022-11-02 15:19:35,954,-89,-97,19,-9,2,29,-22,3,31.8,33.59,1018.08,1,0
2022-11-02 15:19:35,989,-74,-111,7,-6,4,31,-21,2,31.8,33.59,1018.08,1,0
2022-11-02 15:19:35,989,-74,-111,7,-6,4,31,-21,2,31.8,33.59,1018.08,1,0
2022-11-02 15:19:35,989,-74,-111,7,-6,4,31,-21,2,31.8,33.59,1018.08,1,0
2022-11-02 15:19:35,989,-74,-111,7,-6,4,31,-21,2,31.8,33.59,1018.08,1,0
2022-11-02 15:19:35,954,-50,-136,13,3,0,29,-22,4,31.8,33.59,1018.08,1,0
2022-11-02 15:19:35,954,-50,-136,13,3,0,29,-22,4,31.8,33.59,1018.08,1,0
2022-11-02 15:19:35,954,-50,-136,13,3,0,29,-22,4,31.8,33.59,1018.08,1,0
2022-11-02 15:19:35,954,-50,-136,13,3,0,29,-22,4,31.8,33.59,1018.08,1,0
2022-11-02 15:19:36,985,-23,-142,12,7,-5,29,-21,6,31.8,33.59,1018.08,1,0
2022-11-02 15:19:36,985,-23,-142,12,7,-5,29,-21,6,31.8,33.59,1018.08,1,0
2022-11-02 15:19:36,985,-23,-142,12,7,-5,29,-21,6,31.8,33.59,1018.08,1,0
2022-11-02 15:19:36,985,-23,-142,12,7,-5,29,-21,6,31.8,33.59,1018.08,1,0
2022-11-02 15:19:36,1071,23,-101,20,7,-11,31,-23,7,31.8,33.59,1018.08,1,0
2022-11-02 15:19:36,1071,23,-101,20,7,-11,31,-23,7,31.8,33.59,1018.08,1,0
2022-11-02 15:19:36,1071,23,-101,20,7,-11,31,-23,7,31.8,33.59,1018.08,1,0
2022-11-02 15:19:36,1071,23,-101,20,7,-11,31,-23,7,31.8,33.59,1018.08,1,0
2022-11-02 15:19:36,1182,-56,-23,26,0,1,31,-20,6,31.8,33.59,1018.08,1,0
2022-11-02 15:19:36,1182,-56,-23,26,0,1,31,-20,6,31.8,33.59,1018.08,1,0
2022-11-02 15:19:36,1182,-56,-23,26,0,1,31,-20,6,31.8,33.59,1018.08,1,0
2022-11-02 15:19:36,1182,-56,-23,26,0,1,31,-20,6,31.8,33.59,1018.08,1,0
2022-11-02 15:19:36,938,-62,-66,8,-5,-2,32,-20,9,31.8,33.59,1018.08,1,0
2022-11-02 15:19:36,938,-62,-66,8,-5,-2,32,-20,9,31.8,33.59,1018.08,1,0
2022-11-02 15:19:36,938,-62,-66,8,-5,-2,32,-20,9,31.8,33.59,1018.08,1,0
2022-11-02 15:19:36,938,-62,-66,8,-5,-2,32,-20,9,31.8,33.59,1018.08,1,0
2022-11-02 15:19:36,1003,-148,21,-1,4,-6,29,-24,7,31.8,33.59,1018.08,1,0
2022-11-02 15:19:36,1003,-148,21,-1,4,-6,29,-24,7,31.8,33.59,1018.08,1,0
2022-11-02 15:19:36,1003,-148,21,-1,4,-6,29,-24,7,31.8,33.59,1018.08,1,0
2022-11-02 15:19:36,1003,-148,21,-1,4,-6,29,-24,7,31.8,33.59,1018.08,1,0
2022-11-02 15:19:36,981,46,9,-15,4,-4,31,-23,9,31.8,33.62,1018.08,1,0
2022-11-02 15:19:36,981,46,9,-15,4,-4,31,-23,9,31.8,33.62,1018.08,1,0
2022-11-02 15:19:36,981,46,9,-15,4,-4,31,-23,9,31.8,33.62,1018.08,1,0
2022-11-02 15:19:36,981,46,9,-15,4,-4,31,-23,9,31.8,33.62,1018.08,1,0
2022-11-02 15:19:36,1095,-64,-7,-22,3,-5,29,-21,9,31.8,33.62,1018.08,1,0
2022-11-02 15:19:36,1095,-64,-7,-22,3,-5,29,-21,9,31.8,33.62,1018.08,1,0
2022-11-02 15:19:36,1095,-64,-7,-22,3,-5,29,-21,9,31.8,33.62,1018.08,1,0
2022-11-02 15:19:36,1095,-64,-7,-22,3,-5,29,-21,9,31.8,33.62,1018.08,1,0
2022-11-02 15:19:36,960,97,-7,-41,7,-7,32,-20,8,31.8,33.62,1018.08,1,0
2022-11-02 15:19:36,960,97,-7,-41,7,-7,32,-20,8,31.8,33.62,1018.08,1,0
2022-11-02 15:19:36,960,97,-7,-41,7,-7,32,-20,8,31.8,33.62,1018.08,1,0
2022-11-02 15:19:36,960,97,-7,-41,7,-7,32,-20,8,31.8,33.62,1018.08,1,0
2022-11-02 15:19:36,1040,52,9,-37,8,1,34,-15,10,31.8,33.62,1018.08,1,0
2022-11-02 15:19:36,1040,52,9,-37,8,1,34,-15,10,31.8,33.62,1018.08,1,0
2022-11-02 15:19:36,1040,52,9,-37,8,1,34,-15,10,31.8,33.62,1018.08,1,0
2022-11-02 15:19:36,1040,52,9,-37,8,1,34,-15,10,31.8,33.62,1018.08,1,0
2022-11-02 15:19:36,1020,80,-9,-47,3,8,32,-12,7,31.8,33.62,1018.08,1,0
2022-11-02 15:19:36,1020,80,-9,-47,3,8,32,-12,7,31.8,33.62,1018.08,1,0
2022-11-02 15:19:36,1020,80,-9,-47,3,8,32,-12,7,31.8,33.62,1018.08,1,0
2022-11-02 15:19:36,1020,80,-9,-47,3,8,32,-12,7,31.8,33.62,1018.08,1,0
2022-11-02 15:19:37,1016,95,-1,-46,-1,11,31,-8,0,31.8,33.62,1018.08,1,0
2022-11-02 15:19:37,1016,95,-1,-46,-1,11,31,-8,0,31.8,33.62,1018.08,1,0
2022-11-02 15:19:37,1016,95,-1,-46,-1,11,31,-8,0,31.8,33.62,1018.08,1,0
2022-11-02 15:19:37,1016,95,-1,-46,-1,11,31,-8,0,31.8,33.62,1018.08,1,0
2022-11-02 15:19:37,1003,95,-25,-55,-9,0,32,-6,6,31.8,33.62,1018.08,1,0
2022-11-02 15:19:37,1003,95,-25,-55,-9,0,32,-6,6,31.8,33.62,1018.08,1,0
2022-11-02 15:19:37,1003,95,-25,-55,-9,0,32,-6,6,31.8,33.62,1018.08,1,0
2022-11-02 15:19:37,1003,95,-25,-55,-9,0,32,-6,6,31.8,33.62,1018.08,1,0
2022-11-02 15:19:37,1153,-1,7,-48,7,-5,33,-2,1,31.8,33.62,1018.08,1,0
2022-11-02 15:19:37,1153,-1,7,-48,7,-5,33,-2,1,31.8,33.62,1018.08,1,0
2022-11-02 15:19:37,1153,-1,7,-48,7,-5,33,-2,1,31.8,33.62,1018.08,1,0
2022-11-02 15:19:37,1153,-1,7,-48,7,-5,33,-2,1,31.8,33.62,1018.08,1,0
2022-11-02 15:19:37,925,-44,11,-55,-8,7,31,5,0,31.8,33.62,1018.08,1,0
2022-11-02 15:19:37,925,-44,11,-55,-8,7,31,5,0,31.8,33.62,1018.08,1,0
2022-11-02 15:19:37,925,-44,11,-55,-8,7,31,5,0,31.8,33.62,1018.08,1,0
2022-11-02 15:19:37,925,-44,11,-55,-8,7,31,5,0,31.8,33.62,1018.08,1,0
2022-11-02 15:19:37,954,-130,-3,-41,6,6,30,7,-1,31.8,33.62,1018.08,1,0
2022-11-02 15:19:37,954,-130,-3,-41,6,6,30,7,-1,31.8,33.62,1018.08,1,0
2022-11-02 15:19:37,954,-130,-3,-41,6,6,30,7,-1,31.8,33.62,1018.08,1,0
2022-11-02 15:19:37,954,-130,-3,-41,6,6,30,7,-1,31.8,33.62,1018.08,1,0
2022-11-02 15:19:37,1110,15,-81,-35,-1,5,30,9,-2,31.9,33.63,1018.06,1,0
2022-11-02 15:19:37,1110,15,-81,-35,-1,5,30,9,-2,31.9,33.63,1018.06,1,0
2022-11-02 15:19:37,1110,15,-81,-35,-1,5,30,9,-2,31.9,33.63,1018.06,1,0
2022-11-02 15:19:37,1110,15,-81,-35,-1,5,30,9,-2,31.9,33.63,1018.06,1,0
2022-11-02 15:19:37,972,-76,-101,-14,-3,7,28,12,3,31.9,33.63,1018.06,1,0
2022-11-02 15:19:37,972,-76,-101,-14,-3,7,28,12,3,31.9,33.63,1018.06,1,0
2022-11-02 15:19:37,972,-76,-101,-14,-3,7,28,12,3,31.9,33.63,1018.06,1,0
2022-11-02 15:19:37,972,-76,-101,-14,-3,7,28,12,3,31.9,33.63,1018.06,1,0
2022-11-02 15:19:37,981,-80,-97,-16,1,4,29,15,1,31.9,33.63,1018.06,1,0
2022-11-02 15:19:37,981,-80,-97,-16,1,4,29,15,1,31.9,33.63,1018.06,1,0
2022-11-02 15:19:37,981,-80,-97,-16,1,4,29,15,1,31.9,33.63,1018.06,1,0
2022-11-02 15:19:37,981,-80,-97,-16,1,4,29,15,1,31.9,33.63,1018.06,1,0
2022-11-02 15:19:37,972,-40,-142,-2,3,-7,28,15,0,31.9,33.63,1018.06,1,0
2022-11-02 15:19:37,972,-40,-142,-2,3,-7,28,15,0,31.9,33.63,1018.06,1,0
2022-11-02 15:19:37,972,-40,-142,-2,3,-7,28,15,0,31.9,33.63,1018.06,1,0
2022-11-02 15:19:37,972,-40,-142,-2,3,-7,28,15,0,31.9,33.63,1018.06,1,0
2022-11-02 15:19:37,989,17,-136,3,0,-16,26,17,3,31.9,33.63,1018.06,1,0
2022-11-02 15:19:37,989,17,-136,3,0,-16,26,17,3,31.9,33.63,1018.06,1,0
2022-11-02 15:19:37,989,17,-136,3,0,-16,26,17,3,31.9,33.63,1018.06,1,0
2022-11-02 15:19:37,989,17,-136,3,0,-16,26,17,3,31.9,33.63,1018.06,1,0
2022-11-02 15:19:38,1210,-17,-81,-2,-6,0,31,16,2,31.9,33.63,1018.06,1,0
2022-11-02 15:19:38,1210,-17,-81,-2,-6,0,31,16,2,31.9,33.63,1018.06,1,0
2022-11-02 15:19:38,1210,-17,-81,-2,-6,0,31,16,2,31.9,33.63,1018.06,1,0
2022-11-02 15:19:38,1210,-17,-81,-2,-6,0,31,16,2,31.9,33.63,1018.06,1,0
2022-11-02 15:19:38,882,-154,-23,8,-15,6,29,16,0,31.9,33.63,1018.06,1,0
2022-11-02 15:19:38,882,-154,-23,8,-15,6,29,16,0,31.9,33.63,1018.06,1,0
2022-11-02 15:19:38,882,-154,-23,8,-15,6,29,16,0,31.9,33.63,1018.06,1,0
2022-11-02 15:19:38,882,-154,-23,8,-15,6,29,16,0,31.9,33.63,1018.06,1,0
2022-11-02 15:19:38,1018,-115,42,-8,7,-6,27,17,-2,31.9,33.63,1018.06,1,0
2022-11-02 15:19:38,1018,-115,42,-8,7,-6,27,17,-2,31.9,33.63,1018.06,1,0
2022-11-02 15:19:38,1018,-115,42,-8,7,-6,27,17,-2,31.9,33.63,1018.06,1,0
2022-11-02 15:19:38,1018,-115,42,-8,7,-6,27,17,-2,31.9,33.63,1018.06,1,0
2022-11-02 15:19:38,999,-3,1,-20,7,-9,26,14,0,31.9,33.63,1018.06,1,0
2022-11-02 15:19:38,999,-3,1,-20,7,-9,26,14,0,31.9,33.63,1018.06,1,0
2022-11-02 15:19:38,999,-3,1,-20,7,-9,26,14,0,31.9,33.63,1018.06,1,0
2022-11-02 15:19:38,999,-3,1,-20,7,-9,26,14,0,31.9,33.63,1018.06,1,0
2022-11-02 15:19:38,1056,25,33,-12,1,-2,26,17,-4,31.9,33.63,1018.06,1,0
2022-11-02 15:19:38,1056,25,33,-12,1,-2,26,17,-4,31.9,33.63,1018.06,1,0
2022-11-02 15:19:38,1056,25,33,-12,1,-2,26,17,-4,31.9,33.63,1018.06,1,0
2022-11-02 15:19:38,1056,25,33,-12,1,-2,26,17,-4,31.9,33.63,1018.06,1,0
2022-11-02 15:19:38,1013,52,-9,-38,2,-9,27,18,1,31.9,33.63,1018.06,1,0
2022-11-02 15:19:38,1013,52,-9,-38,2,-9,27,18,1,31.9,33.63,1018.06,1,0
2022-11-02 15:19:38,1013,52,-9,-38,2,-9,27,18,1,31.9,33.63,1018.06,1,0
2022-11-02 15:19:38,1013,52,-9,-38,2,-9,27,18,1,31.9,33.63,1018.06,1,0
2022-11-02 15:19:38,1018,87,-17,-40,2,-1,24,24,0,31.8,33.62,1018.06,1,0
2022-11-02 15:19:38,1018,87,-17,-40,2,-1,24,24,0,31.8,33.62,1018.06,1,0
2022-11-02 15:19:38,1018,87,-17,-40,2,-1,24,24,0,31.8,33.62,1018.06,1,0
2022-11-02 15:19:38,1018,87,-17,-40,2,-1,24,24,0,31.8,33.62,1018.06,1,0
2022-11-02 15:19:38,1024,62,0,-43,2,3,26,26,-1,31.8,33.62,1018.06,1,0
2022-11-02 15:19:38,1024,62,0,-43,2,3,26,26,-1,31.8,33.62,1018.06,1,0
2022-11-02 15:19:38,1024,62,0,-43,2,3,26,26,-1,31.8,33.62,1018.06,1,0
2022-11-02 15:19:38,1024,62,0,-43,2,3,26,26,-1,31.8,33.62,1018.06,1,0
2022-11-02 15:19:38,1024,42,-31,-47,-2,6,31,27,0,31.8,33.62,1018.06,1,0
2022-11-02 15:19:38,1024,42,-31,-47,-2,6,31,27,0,31.8,33.62,1018.06,1,0
2022-11-02 15:19:38,1024,42,-31,-47,-2,6,31,27,0,31.8,33.62,1018.06,1,0
2022-11-02 15:19:38,1024,42,-31,-47,-2,6,31,27,0,31.8,33.62,1018.06,1,0
2022-11-02 15:19:38,1032,80,-13,-48,-1,6,28,32,6,31.8,33.62,1018.06,1,0
2022-11-02 15:19:38,1032,80,-13,-48,-1,6,28,32,6,31.8,33.62,1018.06,1,0
2022-11-02 15:19:38,1032,80,-13,-48,-1,6,28,32,6,31.8,33.62,1018.06,1,0
2022-11-02 15:19:38,1032,80,-13,-48,-1,6,28,32,6,31.8,33.62,1018.06,1,0
2022-11-02 15:19:39,1009,121,-48,-57,-5,7,25,34,6,31.8,33.62,1018.06,1,0
2022-11-02 15:19:39,1009,121,-48,-57,-5,7,25,34,6,31.8,33.62,1018.06,1,0
2022-11-02 15:19:39,1009,121,-48,-57,-5,7,25,34,6,31.8,33.62,1018.06,1,0
2022-11-02 15:19:39,1009,121,-48,-57,-5,7,25,34,6,31.8,33.62,1018.06,1,0
2022-11-02 15:19:39,1044,80,-52,-57,-5,8,27,41,7,31.8,33.62,1018.06,1,0
2022-11-02 15:19:39,1044,80,-52,-57,-5,8,27,41,7,31.8,33.62,1018.06,1,0
2022-11-02 15:19:39,1044,80,-52,-57,-5,8,27,41,7,31.8,33.62,1018.06,1,0
2022-11-02 15:19:39,1044,80,-52,-57,-5,8,27,41,7,31.8,33.62,1018.06,1,0
2022-11-02 15:19:39,999,37,-15,-32,8,-3,28,43,9,31.8,33.62,1018.06,1,0
2022-11-02 15:19:39,999,37,-15,-32,8,-3,28,43,9,31.8,33.62,1018.06,1,0
2022-11-02 15:19:39,999,37,-15,-32,8,-3,28,43,9,31.8,33.62,1018.06,1,0
2022-11-02 15:19:39,999,37,-15,-32,8,-3,28,43,9,31.8,33.62,1018.06,1,0
2022-11-02 15:19:39,1077,-27,-19,-40,1,4,26,48,10,31.8,33.62,1018.06,1,0
2022-11-02 15:19:39,1077,-27,-19,-40,1,4,26,48,10,31.8,33.62,1018.06,1,0
2022-11-02 15:19:39,1077,-27,-19,-40,1,4,26,48,10,31.8,33.62,1018.06,1,0
2022-11-02 15:19:39,1077,-27,-19,-40,1,4,26,48,10,31.8,33.62,1018.06,1,0
2022-11-02 15:19:39,985,-70,-35,-38,-1,11,28,50,11,31.8,33.62,1018.06,1,0
2022-11-02 15:19:39,985,-70,-35,-38,-1,11,28,50,11,31.8,33.62,1018.06,1,0
2022-11-02 15:19:39,985,-70,-35,-38,-1,11,28,50,11,31.8,33.62,1018.06,1,0
2022-11-02 15:19:39,985,-70,-35,-38,-1,11,28,50,11,31.8,33.62,1018.06,1,0
2022-11-02 15:19:39,1005,-105,3,-27,5,13,27,53,14,31.8,33.62,1018.06,1,0
2022-11-02 15:19:39,1005,-105,3,-27,5,13,27,53,14,31.8,33.62,1018.06,1,0
2022-11-02 15:19:39,1005,-105,3,-27,5,13,27,53,14,31.8,33.62,1018.06,1,0
2022-11-02 15:19:39,1005,-105,3,-27,5,13,27,53,14,31.8,33.62,1018.06,1,0
2022-11-02 15:19:39,1001,-76,-81,-42,0,5,31,50,16,31.9,33.62,1018.05,1,0
2022-11-02 15:19:39,1001,-76,-81,-42,0,5,31,50,16,31.9,33.62,1018.05,1,0
2022-11-02 15:19:39,1001,-76,-81,-42,0,5,31,50,16,31.9,33.62,1018.05,1,0
2022-11-02 15:19:39,1001,-76,-81,-42,0,5,31,50,16,31.9,33.62,1018.05,1,0
2022-11-02 15:19:39,1018,-56,-81,-17,0,4,30,55,22,31.9,33.62,1018.05,1,0
2022-11-02 15:19:39,1018,-56,-81,-17,0,4,30,55,22,31.9,33.62,1018.05,1,0
2022-11-02 15:19:39,1018,-56,-81,-17,0,4,30,55,22,31.9,33.62,1018.05,1,0
2022-11-02 15:19:39,1018,-56,-81,-17,0,4,30,55,22,31.9,33.62,1018.05,1,0
2022-11-02 15:19:39,987,-101,-78,-19,1,3,31,53,25,31.9,33.62,1018.05,1,0
2022-11-02 15:19:39,987,-101,-78,-19,1,3,31,53,25,31.9,33.62,1018.05,1,0
2022-11-02 15:19:39,987,-101,-78,-19,1,3,31,53,25,31.9,33.62,1018.05,1,0
2022-11-02 15:19:39,987,-101,-78,-19,1,3,31,53,25,31.9,33.62,1018.05,1,0
2022-11-02 15:19:39,983,-91,-95,-16,10,-1,30,53,23,31.9,33.62,1018.05,1,0
2022-11-02 15:19:39,983,-91,-95,-16,10,-1,30,53,23,31.9,33.62,1018.05,1,0
2022-11-02 15:19:39,983,-91,-95,-16,10,-1,30,53,23,31.9,33.62,1018.05,1,0
2022-11-02 15:19:39,983,-91,-95,-16,10,-1,30,53,23,31.9,33.62,1018.05,1,0
2022-11-02 15:19:40,999,-56,-85,-8,10,-7,32,57,22,31.9,33.62,1018.05,1,0
2022-11-02 15:19:40,999,-56,-85,-8,10,-7,32,57,22,31.9,33.62,1018.05,1,0
2022-11-02 15:19:40,999,-56,-85,-8,10,-7,32,57,22,31.9,33.62,1018.05,1,0
2022-11-02 15:19:40,999,-56,-85,-8,10,-7,32,57,22,31.9,33.62,1018.05,1,0
2022-11-02 15:19:40,1038,-80,-140,-6,4,-13,31,54,25,31.9,33.62,1018.05,1,0
2022-11-02 15:19:40,1038,-80,-140,-6,4,-13,31,54,25,31.9,33.62,1018.05,1,0
2022-11-02 15:19:40,1038,-80,-140,-6,4,-13,31,54,25,31.9,33.62,1018.05,1,0
2022-11-02 15:19:40,1038,-80,-140,-6,4,-13,31,54,25,31.9,33.62,1018.05,1,0
2022-11-02 15:19:40,1165,7,-23,-2,-2,-6,29,57,26,31.9,33.62,1018.05,1,0
2022-11-02 15:19:40,1165,7,-23,-2,-2,-6,29,57,26,31.9,33.62,1018.05,1,0
2022-11-02 15:19:40,1165,7,-23,-2,-2,-6,29,57,26,31.9,33.62,1018.05,1,0
2022-11-02 15:19:40,1165,7,-23,-2,-2,-6,29,57,26,31.9,33.62,1018.05,1,0
2022-11-02 15:19:40,948,-78,-11,-11,-7,1,28,58,28,31.9,33.62,1018.05,1,0
2022-11-02 15:19:40,948,-78,-11,-11,-7,1,28,58,28,31.9,33.62,1018.05,1,0
2022-11-02 15:19:40,948,-78,-11,-11,-7,1,28,58,28,31.9,33.62,1018.05,1,0
2022-11-02 15:19:40,948,-78,-11,-11,-7,1,28,58,28,31.9,33.62,1018.05,1,0
2022-11-02 15:19:40,1028,-111,29,-18,-1,-10,29,59,26,31.9,33.62,1018.05,1,0
2022-11-02 15:19:40,1028,-111,29,-18,-1,-10,29,59,26,31.9,33.62,1018.05,1,0
2022-11-02 15:19:40,1028,-111,29,-18,-1,-10,29,59,26,31.9,33.62,1018.05,1,0
2022-11-02 15:19:40,1028,-111,29,-18,-1,-10,29,59,26,31.9,33.62,1018.05,1,0
2022-11-02 15:19:40,1011,62,68,-31,4,-13,27,61,29,31.9,33.62,1018.05,1,0
2022-11-02 15:19:40,1011,62,68,-31,4,-13,27,61,29,31.9,33.62,1018.05,1,0
2022-11-02 15:19:40,1011,62,68,-31,4,-13,27,61,29,31.9,33.62,1018.05,1,0
2022-11-02 15:19:40,1011,62,68,-31,4,-13,27,61,29,31.9,33.62,1018.05,1,0
2022-11-02 15:19:40,1057,56,35,-46,-1,-10,28,63,29,31.8,33.92,1018.06,1,0
2022-11-02 15:19:40,1057,56,35,-46,-1,-10,28,63,29,31.8,33.92,1018.06,1,0
2022-11-02 15:19:40,1057,56,35,-46,-1,-10,28,63,29,31.8,33.92,1018.06,1,0
2022-11-02 15:19:40,1057,56,35,-46,-1,-10,28,63,29,31.8,33.92,1018.06,1,0
2022-11-02 15:19:40,995,103,40,-57,5,-7,29,61,30,31.8,33.92,1018.06,1,0
2022-11-02 15:19:40,995,103,40,-57,5,-7,29,61,30,31.8,33.92,1018.06,1,0
2022-11-02 15:19:40,995,103,40,-57,5,-7,29,61,30,31.8,33.92,1018.06,1,0
2022-11-02 15:19:40,995,103,40,-57,5,-7,29,61,30,31.8,33.92,1018.06,1,0
2022-11-02 15:19:40,1020,74,5,-59,0,0,26,65,39,31.8,33.92,1018.06,1,0
2022-11-02 15:19:40,1020,74,5,-59,0,0,26,65,39,31.8,33.92,1018.06,1,0
2022-11-02 15:19:40,1020,74,5,-59,0,0,26,65,39,31.8,33.92,1018.06,1,0
2022-11-02 15:19:40,1020,74,5,-59,0,0,26,65,39,31.8,33.92,1018.06,1,0
2022-11-02 15:19:40,1040,97,0,-65,-2,7,27,66,42,31.8,33.92,1018.06,1,0
2022-11-02 15:19:40,1040,97,0,-65,-2,7,27,66,42,31.8,33.92,1018.06,1,0
2022-11-02 15:19:40,1040,97,0,-65,-2,7,27,66,42,31.8,33.92,1018.06,1,0
2022-11-02 15:19:40,1040,97,0,-65,-2,7,27,66,42,31.8,33.92,1018.06,1,0
2022-11-02 15:19:41,1020,101,-15,-63,-2,8,26,67,53,31.8,33.92,1018.06,1,0
2022-11-02 15:19:41,1020,101,-15,-63,-2,8,26,67,53,31.8,33.92,1018.06,1,0
2022-11-02 15:19:41,1020,101,-15,-63,-2,8,26,67,53,31.8,33.92,1018.06,1,0
2022-11-02 15:19:41,1020,101,-15,-63,-2,8,26,67,53,31.8,33.92,1018.06,1,0
2022-11-02 15:19:41,1026,107,-39,-64,-7,9,28,67,62,31.8,33.92,1018.06,1,0
2022-11-02 15:19:41,1026,107,-39,-64,-7,9,28,67,62,31.8,33.92,1018.06,1,0
2022-11-02 15:19:41,1026,107,-39,-64,-7,9,28,67,62,31.8,33.92,1018.06,1,0
2022-11-02 15:19:41,1026,107,-39,-64,-7,9,28,67,62,31.8,33.92,1018.06,1,0
2022-11-02 15:19:41,1011,91,-66,-59,-9,9,27,65,62,31.8,33.92,1018.06,1,0
2022-11-02 15:19:41,1011,91,-66,-59,-9,9,27,65,62,31.8,33.92,1018.06,1,0
2022-11-02 15:19:41,1011,91,-66,-59,-9,9,27,65,62,31.8,33.92,1018.06,1,0
2022-11-02 15:19:41,1011,91,-66,-59,-9,9,27,65,62,31.8,33.92,1018.06,1,0
2022-11-02 15:19:41,1093,66,-64,-50,-6,7,30,62,68,31.8,33.92,1018.06,1,0
2022-11-02 15:19:41,1093,66,-64,-50,-6,7,30,62,68,31.8,33.92,1018.06,1,0
2022-11-02 15:19:41,1093,66,-64,-50,-6,7,30,62,68,31.8,33.92,1018.06,1,0
2022-11-02 15:19:41,1093,66,-64,-50,-6,7,30,62,68,31.8,33.92,1018.06,1,0
2022-11-02 15:19:41,1030,0,-23,-29,6,2,28,58,69,31.8,33.92,1018.06,1,0
2022-11-02 15:19:41,1030,0,-23,-29,6,2,28,58,69,31.8,33.92,1018.06,1,0
2022-11-02 15:19:41,1030,0,-23,-29,6,2,28,58,69,31.8,33.92,1018.06,1,0
2022-11-02 15:19:41,1030,0,-23,-29,6,2,28,58,69,31.8,33.92,1018.06,1,0
2022-11-02 15:19:41,985,27,-70,-33,0,9,29,55,73,31.8,33.92,1018.06,1,0
2022-11-02 15:19:41,985,27,-70,-33,0,9,29,55,73,31.8,33.92,1018.06,1,0
2022-11-02 15:19:41,985,27,-70,-33,0,9,29,55,73,31.8,33.92,1018.06,1,0
2022-11-02 15:19:41,985,27,-70,-33,0,9,29,55,73,31.8,33.92,1018.06,1,0
2022-11-02 15:19:41,1036,-40,13,-19,5,7,29,53,72,31.9,33.37,1018.05,1,0
2022-11-02 15:19:41,1036,-40,13,-19,5,7,29,53,72,31.9,33.37,1018.05,1,0
2022-11-02 15:19:41,1036,-40,13,-19,5,7,29,53,72,31.9,33.37,1018.05,1,0
2022-11-02 15:19:41,1036,-40,13,-19,5,7,29,53,72,31.9,33.37,1018.05,1,0
2022-11-02 15:19:41,948,-103,11,-26,2,4,32,55,78,31.9,33.37,1018.05,1,0
2022-11-02 15:19:41,948,-103,11,-26,2,4,32,55,78,31.9,33.37,1018.05,1,0
2022-11-02 15:19:41,948,-103,11,-26,2,4,32,55,78,31.9,33.37,1018.05,1,0
2022-11-02 15:19:41,948,-103,11,-26,2,4,32,55,78,31.9,33.37,1018.05,1,0
2022-11-02 15:19:41,1056,-42,-91,-36,4,3,29,52,79,31.9,33.37,1018.05,1,0
2022-11-02 15:19:41,1056,-42,-91,-36,4,3,29,52,79,31.9,33.37,1018.05,1,0
2022-11-02 15:19:41,1056,-42,-91,-36,4,3,29,52,79,31.9,33.37,1018.05,1,0
2022-11-02 15:19:41,1056,-42,-91,-36,4,3,29,52,79,31.9,33.37,1018.05,1,0
2022-11-02 15:19:41,1057,40,-72,-14,-3,-2,31,51,81,31.9,33.37,1018.05,1,0
2022-11-02 15:19:41,1057,40,-72,-14,-3,-2,31,51,81,31.9,33.37,1018.05,1,0
2022-11-02 15:19:41,1057,40,-72,-14,-3,-2,31,51,81,31.9,33.37,1018.05,1,0
2022-11-02 15:19:41,1057,40,-72,-14,-3,-2,31,51,81,31.9,33.37,1018.05,1,0
2022-11-02 15:19:42,983,-64,-93,-7,-2,5,30,50,84,31.9,33.37,1018.05,1,0
2022-11-02 15:19:42,983,-64,-93,-7,-2,5,30,50,84,31.9,33.37,1018.05,1,0
2022-11-02 15:19:42,983,-64,-93,-7,-2,5,30,50,84,31.9,33.37,1018.05,1,0
2022-11-02 15:19:42,983,-64,-93,-7,-2,5,30,50,84,31.9,33.37,1018.05,1,0
2022-11-02 15:19:42,964,-29,-103,-5,6,0,29,48,87,31.9,33.37,1018.05,1,0
2022-11-02 15:19:42,964,-29,-103,-5,6,0,29,48,87,31.9,33.37,1018.05,1,0
2022-11-02 15:19:42,964,-29,-103,-5,6,0,29,48,87,31.9,33.37,1018.05,1,0
2022-11-02 15:19:42,964,-29,-103,-5,6,0,29,48,87,31.9,33.37,1018.05,1,0
2022-11-02 15:19:42,1015,-11,-93,1,9,-6,30,49,83,31.9,33.37,1018.05,1,0
2022-11-02 15:19:42,1015,-11,-93,1,9,-6,30,49,83,31.9,33.37,1018.05,1,0
2022-11-02 15:19:42,1015,-11,-93,1,9,-6,30,49,83,31.9,33.37,1018.05,1,0
2022-11-02 15:19:42,1015,-11,-93,1,9,-6,30,49,83,31.9,33.37,1018.05,1,0
2022-11-02 15:19:42,1016,-64,-93,3,9,-6,30,49,84,31.9,33.37,1018.05,1,0
2022-11-02 15:19:42,1016,-64,-93,3,9,-6,30,49,84,31.9,33.37,1018.05,1,0
2022-11-02 15:19:42,1016,-64,-93,3,9,-6,30,49,84,31.9,33.37,1018.05,1,0
2022-11-02 15:19:42,1016,-64,-93,3,9,-6,30,49,84,31.9,33.37,1018.05,1,0
2022-11-02 15:19:42,1143,31,-95,-1,1,-4,29,48,84,31.9,33.37,1018.05,1,0
2022-11-02 15:19:42,1143,31,-95,-1,1,-4,29,48,84,31.9,33.37,1018.05,1,0
2022-11-02 15:19:42,1143,31,-95,-1,1,-4,29,48,84,31.9,33.37,1018.05,1,0
2022-11-02 15:19:42,1143,31,-95,-1,1,-4,29,48,84,31.9,33.37,1018.05,1,0
2022-11-02 15:19:42,1093,-78,-11,0,-12,6,28,48,83,31.9,33.37,1018.05,1,0
2022-11-02 15:19:42,1093,-78,-11,0,-12,6,28,48,83,31.9,33.37,1018.05,1,0
2022-11-02 15:19:42,1093,-78,-11,0,-12,6,28,48,83,31.9,33.37,1018.05,1,0
2022-11-02 15:19:42,1093,-78,-11,0,-12,6,28,48,83,31.9,33.37,1018.05,1,0
2022-11-02 15:19:42,977,-74,-23,-14,-13,10,29,49,89,31.9,33.64,1018.12,1,0
2022-11-02 15:19:42,977,-74,-23,-14,-13,10,29,49,89,31.9,33.64,1018.12,1,0
2022-11-02 15:19:42,977,-74,-23,-14,-13,10,29,49,89,31.9,33.64,1018.12,1,0
2022-11-02 15:19:42,977,-74,-23,-14,-13,10,29,49,89,31.9,33.64,1018.12,1,0
2022-11-02 15:19:42,962,15,-11,-15,0,-9,33,50,84,31.9,33.64,1018.12,1,0
2022-11-02 15:19:42,962,15,-11,-15,0,-9,33,50,84,31.9,33.64,1018.12,1,0
2022-11-02 15:19:42,962,15,-11,-15,0,-9,33,50,84,31.9,33.64,1018.12,1,0
2022-11-02 15:19:42,962,15,-11,-15,0,-9,33,50,84,31.9,33.64,1018.12,1,0
2022-11-02 15:19:42,1003,54,40,-9,10,-5,32,48,87,31.9,33.64,1018.12,1,0
2022-11-02 15:19:42,1003,54,40,-9,10,-5,32,48,87,31.9,33.64,1018.12,1,0
2022-11-02 15:19:42,1003,54,40,-9,10,-5,32,48,87,31.9,33.64,1018.12,1,0
2022-11-02 15:19:42,1003,54,40,-9,10,-5,32,48,87,31.9,33.64,1018.12,1,0
2022-11-02 15:19:42,1042,37,7,-16,6,-11,30,49,88,31.9,33.64,1018.12,1,0
2022-11-02 15:19:42,1042,37,7,-16,6,-11,30,49,88,31.9,33.64,1018.12,1,0
2022-11-02 15:19:42,1042,37,7,-16,6,-11,30,49,88,31.9,33.64,1018.12,1,0
2022-11-02 15:19:42,1042,37,7,-16,6,-11,30,49,88,31.9,33.64,1018.12,1,0
2022-11-02 15:19:43,989,132,1,-24,7,-7,30,46,86,31.9,33.64,1018.12,1,0
2022-11-02 15:19:43,989,132,1,-24,7,-7,30,46,86,31.9,33.64,1018.12,1,0
2022-11-02 15:19:43,989,132,1,-24,7,-7,30,46,86,31.9,33.64,1018.12,1,0
2022-11-02 15:19:43,989,132,1,-24,7,-7,30,46,86,31.9,33.64,1018.12,1,0
2022-11-02 15:19:43,1018,93,-7,-21,4,1,27,46,91,31.9,33.64,1018.12,1,0
2022-11-02 15:19:43,1018,93,-7,-21,4,1,27,46,91,31.9,33.64,1018.12,1,0
2022-11-02 15:19:43,1018,93,-7,-21,4,1,27,46,91,31.9,33.64,1018.12,1,0
2022-11-02 15:19:43,1018,93,-7,-21,4,1,27,46,91,31.9,33.64,1018.12,1,0
2022-11-02 15:19:43,1016,87,-23,-25,1,7,28,43,92,31.9,33.64,1018.12,1,0
2022-11-02 15:19:43,1016,87,-23,-25,1,7,28,43,92,31.9,33.64,1018.12,1,0
2022-11-02 15:19:43,1016,87,-23,-25,1,7,28,43,92,31.9,33.64,1018.12,1,0
2022-11-02 15:19:43,1016,87,-23,-25,1,7,28,43,92,31.9,33.64,1018.12,1,0
2022-11-02 15:19:43,1026,81,-21,-23,2,10,28,44,91,31.9,33.64,1018.12,1,0
2022-11-02 15:19:43,1026,81,-21,-23,2,10,28,44,91,31.9,33.64,1018.12,1,0
2022-11-02 15:19:43,1026,81,-21,-23,2,10,28,44,91,31.9,33.64,1018.12,1,0
2022-11-02 15:19:43,1026,81,-21,-23,2,10,28,44,91,31.9,33.64,1018.12,1,0
2022-11-02 15:19:43,999,42,-29,-37,-3,8,29,41,97,31.9,33.64,1018.12,1,0
2022-11-02 15:19:43,999,42,-29,-37,-3,8,29,41,97,31.9,33.64,1018.12,1,0
2022-11-02 15:19:43,999,42,-29,-37,-3,8,29,41,97,31.9,33.64,1018.12,1,0
2022-11-02 15:19:43,999,42,-29,-37,-3,8,29,41,97,31.9,33.64,1018.12,1,0
2022-11-02 15:19:43,1044,124,-40,-37,-6,0,30,40,94,31.9,33.64,1018.12,1,0
2022-11-02 15:19:43,1044,124,-40,-37,-6,0,30,40,94,31.9,33.64,1018.12,1,0
2022-11-02 15:19:43,1044,124,-40,-37,-6,0,30,40,94,31.9,33.64,1018.12,1,0
2022-11-02 15:19:43,1044,124,-40,-37,-6,0,30,40,94,31.9,33.64,1018.12,1,0
2022-11-02 15:19:43,1083,21,3,-5,11,-8,30,35,97,31.9,33.63,1018.06,1,0
2022-11-02 15:19:43,1083,21,3,-5,11,-8,30,35,97,31.9,33.63,1018.06,1,0
2022-11-02 15:19:43,1083,21,3,-5,11,-8,30,35,97,31.9,33.63,1018.06,1,0
2022-11-02 15:19:43,1083,21,3,-5,11,-8,30,35,97,31.9,33.63,1018.06,1,0
2022-11-02 15:19:43,1024,13,9,-20,0,6,30,34,99,31.9,33.63,1018.06,1,0
2022-11-02 15:19:43,1024,13,9,-20,0,6,30,34,99,31.9,33.63,1018.06,1,0
2022-11-02 15:19:43,1024,13,9,-20,0,6,30,34,99,31.9,33.63,1018.06,1,0
2022-11-02 15:19:43,1024,13,9,-20,0,6,30,34,99,31.9,33.63,1018.06,1,0
2022-11-02 15:19:43,1005,-3,25,0,0,7,28,33,101,31.9,33.63,1018.06,1,0
2022-11-02 15:19:43,1005,-3,25,0,0,7,28,33,101,31.9,33.63,1018.06,1,0
2022-11-02 15:19:43,1005,-3,25,0,0,7,28,33,101,31.9,33.63,1018.06,1,0
2022-11-02 15:19:43,1005,-3,25,0,0,7,28,33,101,31.9,33.63,1018.06,1,0
2022-11-02 15:19:43,993,-105,21,-5,0,4,29,30,96,31.9,33.63,1018.06,1,0
2022-11-02 15:19:43,993,-105,21,-5,0,4,29,30,96,31.9,33.63,1018.06,1,0
2022-11-02 15:19:43,993,-105,21,-5,0,4,29,30,96,31.9,33.63,1018.06,1,0
2022-11-02 15:19:43,993,-105,21,-5,0,4,29,30,96,31.9,33.63,1018.06,1,0
2022-11-02 15:19:44,1087,15,-25,13,-5,2,28,28,98,31.9,33.63,1018.06,1,0
2022-11-02 15:19:44,1087,15,-25,13,-5,2,28,28,98,31.9,33.63,1018.06,1,0
2022-11-02 15:19:44,1087,15,-25,13,-5,2,28,28,98,31.9,33.63,1018.06,1,0
2022-11-02 15:19:44,1087,15,-25,13,-5,2,28,28,98,31.9,33.63,1018.06,1,0
2022-11-02 15:19:44,995,-60,-21,26,-6,4,29,28,99,31.9,33.63,1018.06,1,0
2022-11-02 15:19:44,995,-60,-21,26,-6,4,29,28,99,31.9,33.63,1018.06,1,0
2022-11-02 15:19:44,995,-60,-21,26,-6,4,29,28,99,31.9,33.63,1018.06,1,0
2022-11-02 15:19:44,995,-60,-21,26,-6,4,29,28,99,31.9,33.63,1018.06,1,0
2022-11-02 15:19:44,981,-35,-76,28,-1,1,28,29,100,31.9,33.63,1018.06,1,0
2022-11-02 15:19:44,981,-35,-76,28,-1,1,28,29,100,31.9,33.63,1018.06,1,0
2022-11-02 15:19:44,981,-35,-76,28,-1,1,28,29,100,31.9,33.63,1018.06,1,0
2022-11-02 15:19:44,981,-35,-76,28,-1,1,28,29,100,31.9,33.63,1018.06,1,0
2022-11-02 15:19:44,974,-76,-78,38,6,-4,32,34,97,31.9,33.63,1018.06,1,0
2022-11-02 15:19:44,974,-76,-78,38,6,-4,32,34,97,31.9,33.63,1018.06,1,0
2022-11-02 15:19:44,974,-76,-78,38,6,-4,32,34,97,31.9,33.63,1018.06,1,0
2022-11-02 15:19:44,974,-76,-78,38,6,-4,32,34,97,31.9,33.63,1018.06,1,0
2022-11-02 15:19:44,1024,-35,-78,32,9,-6,32,38,99,31.9,33.63,1018.06,1,0
2022-11-02 15:19:44,1024,-35,-78,32,9,-6,32,38,99,31.9,33.63,1018.06,1,0
2022-11-02 15:19:44,1024,-35,-78,32,9,-6,32,38,99,31.9,33.63,1018.06,1,0
2022-11-02 15:19:44,1024,-35,-78,32,9,-6,32,38,99,31.9,33.63,1018.06,1,0
2022-11-02 15:19:44,1050,31,-93,39,0,-12,31,40,90,31.9,33.63,1018.06,1,0
2022-11-02 15:19:44,1050,31,-93,39,0,-12,31,40,90,31.9,33.63,1018.06,1,0
2022-11-02 15:19:44,1050,31,-93,39,0,-12,31,40,90,31.9,33.63,1018.06,1,0
2022-11-02 15:19:44,1050,31,-93,39,0,-12,31,40,90,31.9,33.63,1018.06,1,0
2022-11-02 15:19:44,1229,-81,107,44,2,0,29,44,91,31.9,33.64,1018.08,1,0
2022-11-02 15:19:44,1229,-81,107,44,2,0,29,44,91,31.9,33.64,1018.08,1,0
2022-11-02 15:19:44,1229,-81,107,44,2,0,29,44,91,31.9,33.64,1018.08,1,0
2022-11-02 15:19:44,1229,-81,107,44,2,0,29,44,91,31.9,33.64,1018.08,1,0
2022-11-02 15:19:44,919,46,-21,23,-3,-2,29,46,92,31.9,33.64,1018.08,1,0
2022-11-02 15:19:44,919,46,-21,23,-3,-2,29,46,92,31.9,33.64,1018.08,1,0
2022-11-02 15:19:44,919,46,-21,23,-3,-2,29,46,92,31.9,33.64,1018.08,1,0
2022-11-02 15:19:44,919,46,-21,23,-3,-2,29,46,92,31.9,33.64,1018.08,1,0
2022-11-02 15:19:44,1016,-52,95,23,10,0,31,48,90,31.9,33.64,1018.08,1,0
2022-11-02 15:19:44,1016,-52,95,23,10,0,31,48,90,31.9,33.64,1018.08,1,0
2022-11-02 15:19:44,1016,-52,95,23,10,0,31,48,90,31.9,33.64,1018.08,1,0
2022-11-02 15:19:44,1016,-52,95,23,10,0,31,48,90,31.9,33.64,1018.08,1,0
2022-11-02 15:19:44,1001,87,85,15,8,-2,31,45,87,31.9,33.64,1018.08,1,0
2022-11-02 15:19:44,1001,87,85,15,8,-2,31,45,87,31.9,33.64,1018.08,1,0
2022-11-02 15:19:44,1001,87,85,15,8,-2,31,45,87,31.9,33.64,1018.08,1,0
2022-11-02 15:19:44,1001,87,85,15,8,-2,31,45,87,31.9,33.64,1018.08,1,0
2022-11-02 15:19:45,1034,93,74,15,5,-5,31,51,90,31.9,33.64,1018.08,1,0
2022-11-02 15:19:45,1034,93,74,15,5,-5,31,51,90,31.9,33.64,1018.08,1,0
2022-11-02 15:19:45,1034,93,74,15,5,-5,31,51,90,31.9,33.64,1018.08,1,0
2022-11-02 15:19:45,1034,93,74,15,5,-5,31,51,90,31.9,33.64,1018.08,1,0
2022-11-02 15:19:45,1020,101,46,14,5,-8,29,53,83,31.9,33.64,1018.08,1,0
2022-11-02 15:19:45,1020,101,46,14,5,-8,29,53,83,31.9,33.64,1018.08,1,0
2022-11-02 15:19:45,1020,101,46,14,5,-8,29,53,83,31.9,33.64,1018.08,1,0
2022-11-02 15:19:45,1020,101,46,14,5,-8,29,53,83,31.9,33.64,1018.08,1,0
2022-11-02 15:19:45,1007,138,27,13,0,-1,30,54,79,31.9,33.64,1018.08,1,0
