Time,Ax,Ay,Az,Gx,Gy,Gz,Mx,My,Mz,Temp,Humidity,Pressure,Mic,Light
2022-11-02 15:51:42,1016,40,-58,0,0,0,11,50,-6,34.4,36.24,1018.22,0,0
2022-11-02 15:51:42,1016,40,-58,0,0,0,11,50,-6,34.4,36.24,1018.22,0,0
2022-11-02 15:51:42,1016,40,-58,0,0,0,11,50,-6,34.4,36.24,1018.22,0,0
2022-11-02 15:51:42,1016,40,-58,0,0,0,11,50,-6,34.4,36.24,1018.22,0,0
2022-11-02 15:51:42,1016,40,-58,0,0,0,11,50,-6,34.4,36.24,1018.22,0,0
2022-11-02 15:51:42,1016,40,-58,0,0,0,11,50,-6,34.4,36.24,1018.22,0,0
2022-11-02 15:51:42,1016,40,-58,0,0,0,11,50,-6,34.4,36.24,1018.22,0,0
2022-11-02 15:51:42,1016,40,-58,0,0,0,11,50,-6,34.4,36.24,1018.22,0,0
2022-11-02 15:51:42,1016,40,-58,0,0,0,11,50,-6,34.4,36.24,1018.22,0,0
2022-11-02 15:51:42,1016,40,-58,0,0,0,11,50,-6,34.4,36.24,1018.22,0,0
2022-11-02 15:51:42,1016,40,-58,0,0,0,11,50,-6,34.4,36.24,1018.22,0,0
2022-11-02 15:51:42,1028,39,-60,0,0,1,9,59,-6,34.4,36.24,1018.22,0,0
2022-11-02 15:51:42,1028,39,-60,0,0,1,9,59,-6,34.4,36.24,1018.22,0,0
2022-11-02 15:51:42,1028,39,-60,0,0,1,9,59,-6,34.4,36.24,1018.22,0,0
2022-11-02 15:51:42,1028,39,-60,0,0,1,9,59,-6,34.4,36.24,1018.22,0,0
2022-11-02 15:51:42,1028,39,-60,0,0,1,9,59,-6,34.4,36.24,1018.22,0,0
2022-11-02 15:51:42,1028,39,-60,0,0,1,9,59,-6,34.4,36.24,1018.22,0,0
2022-11-02 15:51:42,1028,39,-60,0,0,1,9,59,-6,34.4,36.24,1018.22,0,0
2022-11-02 15:51:42,1028,39,-60,0,0,1,9,59,-6,34.4,36.24,1018.22,0,0
2022-11-02 15:51:42,1028,39,-60,0,0,1,9,59,-6,34.4,36.24,1018.22,0,0
2022-11-02 15:51:42,1028,39,-60,0,0,1,9,59,-6,34.4,36.24,1018.22,0,0
2022-11-02 15:51:42,1028,39,-60,0,0,1,9,59,-6,34.4,36.24,1018.22,0,0
2022-11-02 15:51:42,1024,31,-58,1,0,0,13,57,-3,34.4,36.24,1018.22,0,0
2022-11-02 15:51:42,1024,31,-58,1,0,0,13,57,-3,34.4,36.24,1018.22,0,0
2022-11-02 15:51:42,1024,31,-58,1,0,0,13,57,-3,34.4,36.24,1018.22,0,0
2022-11-02 15:51:42,1024,31,-58,1,0,0,13,57,-3,34.4,36.24,1018.22,0,0
2022-11-02 15:51:42,1024,31,-58,1,0,0,13,57,-3,34.4,36.24,1018.22,0,0
2022-11-02 15:51:42,1024,31,-58,1,0,0,13,57,-3,34.4,36.24,1018.22,0,0
2022-11-02 15:51:42,1024,31,-58,1,0,0,13,57,-3,34.4,36.24,1018.22,0,0
2022-11-02 15:51:42,1024,31,-58,1,0,0,13,57,-3,34.4,36.24,1018.22,0,0
2022-11-02 15:51:42,1024,31,-58,1,0,0,13,57,-3,34.4,36.24,1018.22,0,0
2022-11-02 15:51:42,1024,31,-58,1,0,0,13,57,-3,34.4,36.24,1018.22,0,0
2022-11-02 15:51:42,1024,31,-58,1,0,0,13,57,-3,34.4,36.24,1018.22,0,0
2022-11-02 15:51:42,1016,25,-62,1,0,0,11,55,-5,34.4,36.24,1018.22,0,0
2022-11-02 15:51:42,1016,25,-62,1,0,0,11,55,-5,34.4,36.24,1018.22,0,0
2022-11-02 15:51:42,1016,25,-62,1,0,0,11,55,-5,34.4,36.24,1018.22,0,0
2022-11-02 15:51:42,1016,25,-62,1,0,0,11,55,-5,34.4,36.24,1018.22,0,0
2022-11-02 15:51:42,1016,25,-62,1,0,0,11,55,-5,34.4,36.24,1018.22,0,0
2022-11-02 15:51:42,1016,25,-62,1,0,0,11,55,-5,34.4,36.24,1018.22,0,0
2022-11-02 15:51:42,1016,25,-62,1,0,0,11,55,-5,34.4,36.24,1018.22,0,0
2022-11-02 15:51:42,1016,25,-62,1,0,0,11,55,-5,34.4,36.24,1018.22,0,0
2022-11-02 15:51:42,1016,25,-62,1,0,0,11,55,-5,34.4,36.24,1018.22,0,0
2022-11-02 15:51:42,1016,25,-62,1,0,0,11,55,-5,34.4,36.24,1018.22,0,0
2022-11-02 15:51:42,1016,25,-62,1,0,0,11,55,-5,34.4,36.24,1018.22,0,0
2022-11-02 15:51:42,1016,40,-54,1,0,0,10,56,-4,34.4,36.24,1018.22,0,0
2022-11-02 15:51:42,1016,40,-54,1,0,0,10,56,-4,34.4,36.24,1018.22,0,0
2022-11-02 15:51:42,1016,40,-54,1,0,0,10,56,-4,34.4,36.24,1018.22,0,0
2022-11-02 15:51:42,1016,40,-54,1,0,0,10,56,-4,34.4,36.24,1018.22,0,0
2022-11-02 15:51:42,1016,40,-54,1,0,0,10,56,-4,34.4,36.24,1018.22,0,0
2022-11-02 15:51:42,1016,40,-54,1,0,0,10,56,-4,34.4,36.24,1018.22,0,0
2022-11-02 15:51:42,1016,40,-54,1,0,0,10,56,-4,34.4,36.24,1018.22,0,0
2022-11-02 15:51:42,1016,40,-54,1,0,0,10,56,-4,34.4,36.24,1018.22,0,0
2022-11-02 15:51:42,1016,40,-54,1,0,0,10,56,-4,34.4,36.24,1018.22,0,0
2022-11-02 15:51:42,1016,40,-54,1,0,0,10,56,-4,34.4,36.24,1018.22,0,0
2022-11-02 15:51:42,1016,40,-54,1,0,0,10,56,-4,34.4,36.24,1018.22,0,0
2022-11-02 15:51:42,1013,31,-54,-1,0,0,12,59,-8,34.4,36.24,1018.22,0,0
2022-11-02 15:51:42,1013,31,-54,-1,0,0,12,59,-8,34.4,36.24,1018.22,0,0
2022-11-02 15:51:42,1013,31,-54,-1,0,0,12,59,-8,34.4,36.24,1018.22,0,0
2022-11-02 15:51:42,1013,31,-54,-1,0,0,12,59,-8,34.4,36.24,1018.22,0,0
2022-11-02 15:51:42,1013,31,-54,-1,0,0,12,59,-8,34.4,36.24,1018.22,0,0
2022-11-02 15:51:42,1013,31,-54,-1,0,0,12,59,-8,34.4,36.24,1018.22,0,0
2022-11-02 15:51:42,1013,31,-54,-1,0,0,12,59,-8,34.4,36.24,1018.22,0,0
2022-11-02 15:51:42,1013,31,-54,-1,0,0,12,59,-8,34.4,36.24,1018.22,0,0
2022-11-02 15:51:42,1013,31,-54,-1,0,0,12,59,-8,34.4,36.24,1018.22,0,0
2022-11-02 15:51:42,1013,31,-54,-1,0,0,12,59,-8,34.4,36.24,1018.22,0,0
2022-11-02 15:51:42,1013,31,-54,-1,0,0,12,59,-8,34.4,36.24,1018.22,0,0
2022-11-02 15:51:43,1016,39,-62,0,1,0,11,56,-5,34.4,36.24,1018.22,0,0
2022-11-02 15:51:43,1016,39,-62,0,1,0,11,56,-5,34.4,36.24,1018.22,0,0
2022-11-02 15:51:43,1016,39,-62,0,1,0,11,56,-5,34.4,36.24,1018.22,0,0
2022-11-02 15:51:43,1016,39,-62,0,1,0,11,56,-5,34.4,36.24,1018.22,0,0
2022-11-02 15:51:43,1016,39,-62,0,1,0,11,56,-5,34.4,36.24,1018.22,0,0
2022-11-02 15:51:43,1016,39,-62,0,1,0,11,56,-5,34.4,36.24,1018.22,0,0
2022-11-02 15:51:43,1016,39,-62,0,1,0,11,56,-5,34.4,36.24,1018.22,0,0
2022-11-02 15:51:43,1016,39,-62,0,1,0,11,56,-5,34.4,36.24,1018.22,0,0
2022-11-02 15:51:43,1016,39,-62,0,1,0,11,56,-5,34.4,36.24,1018.22,0,0
2022-11-02 15:51:43,1016,39,-62,0,1,0,11,56,-5,34.4,36.24,1018.22,0,0
2022-11-02 15:51:43,1016,39,-62,0,1,0,11,56,-5,34.4,36.24,1018.22,0,0
2022-11-02 15:51:43,1022,31,-48,0,0,0,11,54,1,34.4,36.24,1018.22,0,0
2022-11-02 15:51:43,1022,31,-48,0,0,0,11,54,1,34.4,36.24,1018.22,0,0
2022-11-02 15:51:43,1022,31,-48,0,0,0,11,54,1,34.4,36.24,1018.22,0,0
2022-11-02 15:51:43,1022,31,-48,0,0,0,11,54,1,34.4,36.24,1018.22,0,0
2022-11-02 15:51:43,1022,31,-48,0,0,0,11,54,1,34.4,36.24,1018.22,0,0
2022-11-02 15:51:43,1022,31,-48,0,0,0,11,54,1,34.4,36.24,1018.22,0,0
2022-11-02 15:51:43,1022,31,-48,0,0,0,11,54,1,34.4,36.24,1018.22,0,0
2022-11-02 15:51:43,1022,31,-48,0,0,0,11,54,1,34.4,36.24,1018.22,0,0
2022-11-02 15:51:43,1022,31,-48,0,0,0,11,54,1,34.4,36.24,1018.22,0,0
2022-11-02 15:51:43,1022,31,-48,0,0,0,11,54,1,34.4,36.24,1018.22,0,0
2022-11-02 15:51:43,1022,31,-48,0,0,0,11,54,1,34.4,36.24,1018.22,0,0
2022-11-02 15:51:43,1030,37,-52,0,-1,0,13,56,-4,34.4,36.11,1018.16,0,0
2022-11-02 15:51:43,1030,37,-52,0,-1,0,13,56,-4,34.4,36.11,1018.16,0,0
2022-11-02 15:51:43,1030,37,-52,0,-1,0,13,56,-4,34.4,36.11,1018.16,0,0
2022-11-02 15:51:43,1030,37,-52,0,-1,0,13,56,-4,34.4,36.11,1018.16,0,0
2022-11-02 15:51:43,1030,37,-52,0,-1,0,13,56,-4,34.4,36.11,1018.16,0,0
2022-11-02 15:51:43,1030,37,-52,0,-1,0,13,56,-4,34.4,36.11,1018.16,0,0
2022-11-02 15:51:43,1030,37,-52,0,-1,0,13,56,-4,34.4,36.11,1018.16,0,0
2022-11-02 15:51:43,1030,37,-52,0,-1,0,13,56,-4,34.4,36.11,1018.16,0,0
2022-11-02 15:51:43,1030,37,-52,0,-1,0,13,56,-4,34.4,36.11,1018.16,0,0
2022-11-02 15:51:43,1030,37,-52,0,-1,0,13,56,-4,34.4,36.11,1018.16,0,0
2022-11-02 15:51:43,1030,37,-52,0,-1,0,13,56,-4,34.4,36.11,1018.16,0,0
2022-11-02 15:51:43,1018,37,-60,1,0,-1,13,54,-3,34.4,36.11,1018.16,0,0
2022-11-02 15:51:43,1018,37,-60,1,0,-1,13,54,-3,34.4,36.11,1018.16,0,0
2022-11-02 15:51:43,1018,37,-60,1,0,-1,13,54,-3,34.4,36.11,1018.16,0,0
2022-11-02 15:51:43,1018,37,-60,1,0,-1,13,54,-3,34.4,36.11,1018.16,0,0
2022-11-02 15:51:43,1018,37,-60,1,0,-1,13,54,-3,34.4,36.11,1018.16,0,0
2022-11-02 15:51:43,1018,37,-60,1,0,-1,13,54,-3,34.4,36.11,1018.16,0,0
2022-11-02 15:51:43,1018,37,-60,1,0,-1,13,54,-3,34.4,36.11,1018.16,0,0
2022-11-02 15:51:43,1018,37,-60,1,0,-1,13,54,-3,34.4,36.11,1018.16,0,0
2022-11-02 15:51:43,1018,37,-60,1,0,-1,13,54,-3,34.4,36.11,1018.16,0,0
2022-11-02 15:51:43,1018,37,-60,1,0,-1,13,54,-3,34.4,36.11,1018.16,0,0
2022-11-02 15:51:43,1018,37,-60,1,0,-1,13,54,-3,34.4,36.11,1018.16,0,0
2022-11-02 15:51:43,1024,39,-46,0,0,0,12,53,-3,34.4,36.11,1018.16,0,0
2022-11-02 15:51:43,1024,39,-46,0,0,0,12,53,-3,34.4,36.11,1018.16,0,0
2022-11-02 15:51:43,1024,39,-46,0,0,0,12,53,-3,34.4,36.11,1018.16,0,0
2022-11-02 15:51:43,1024,39,-46,0,0,0,12,53,-3,34.4,36.11,1018.16,0,0
2022-11-02 15:51:43,1024,39,-46,0,0,0,12,53,-3,34.4,36.11,1018.16,0,0
2022-11-02 15:51:43,1024,39,-46,0,0,0,12,53,-3,34.4,36.11,1018.16,0,0
2022-11-02 15:51:43,1024,39,-46,0,0,0,12,53,-3,34.4,36.11,1018.16,0,0
2022-11-02 15:51:43,1024,39,-46,0,0,0,12,53,-3,34.4,36.11,1018.16,0,0
2022-11-02 15:51:43,1024,39,-46,0,0,0,12,53,-3,34.4,36.11,1018.16,0,0
2022-11-02 15:51:43,1024,39,-46,0,0,0,12,53,-3,34.4,36.11,1018.16,0,0
2022-11-02 15:51:43,1024,39,-46,0,0,0,12,53,-3,34.4,36.11,1018.16,0,0
2022-11-02 15:51:43,1024,56,-70,2,0,-1,11,54,0,34.4,36.11,1018.16,0,0
2022-11-02 15:51:43,1024,56,-70,2,0,-1,11,54,0,34.4,36.11,1018.16,0,0
2022-11-02 15:51:43,1024,56,-70,2,0,-1,11,54,0,34.4,36.11,1018.16,0,0
2022-11-02 15:51:43,1024,56,-70,2,0,-1,11,54,0,34.4,36.11,1018.16,0,0
2022-11-02 15:51:43,1024,56,-70,2,0,-1,11,54,0,34.4,36.11,1018.16,0,0
2022-11-02 15:51:43,1024,56,-70,2,0,-1,11,54,0,34.4,36.11,1018.16,0,0
2022-11-02 15:51:43,1024,56,-70,2,0,-1,11,54,0,34.4,36.11,1018.16,0,0
2022-11-02 15:51:43,1024,56,-70,2,0,-1,11,54,0,34.4,36.11,1018.16,0,0
2022-11-02 15:51:43,1024,56,-70,2,0,-1,11,54,0,34.4,36.11,1018.16,0,0
2022-11-02 15:51:43,1024,56,-70,2,0,-1,11,54,0,34.4,36.11,1018.16,0,0
2022-11-02 15:51:43,1024,56,-70,2,0,-1,11,54,0,34.4,36.11,1018.16,0,0
2022-11-02 15:51:43,1020,29,-62,1,0,0,9,56,-5,34.4,36.11,1018.16,0,0
2022-11-02 15:51:43,1020,29,-62,1,0,0,9,56,-5,34.4,36.11,1018.16,0,0
2022-11-02 15:51:43,1020,29,-62,1,0,0,9,56,-5,34.4,36.11,1018.16,0,0
2022-11-02 15:51:43,1020,29,-62,1,0,0,9,56,-5,34.4,36.11,1018.16,0,0
2022-11-02 15:51:43,1020,29,-62,1,0,0,9,56,-5,34.4,36.11,1018.16,0,0
2022-11-02 15:51:43,1020,29,-62,1,0,0,9,56,-5,34.4,36.11,1018.16,0,0
2022-11-02 15:51:43,1020,29,-62,1,0,0,9,56,-5,34.4,36.11,1018.16,0,0
2022-11-02 15:51:43,1020,29,-62,1,0,0,9,56,-5,34.4,36.11,1018.16,0,0
2022-11-02 15:51:43,1020,29,-62,1,0,0,9,56,-5,34.4,36.11,1018.16,0,0
2022-11-02 15:51:43,1020,29,-62,1,0,0,9,56,-5,34.4,36.11,1018.16,0,0
2022-11-02 15:51:43,1020,29,-62,1,0,0,9,56,-5,34.4,36.11,1018.16,0,0
2022-11-02 15:51:43,1013,33,-64,0,0,1,12,55,-2,34.4,36.11,1018.16,0,0
2022-11-02 15:51:43,1013,33,-64,0,0,1,12,55,-2,34.4,36.11,1018.16,0,0
2022-11-02 15:51:43,1013,33,-64,0,0,1,12,55,-2,34.4,36.11,1018.16,0,0
2022-11-02 15:51:43,1013,33,-64,0,0,1,12,55,-2,34.4,36.11,1018.16,0,0
2022-11-02 15:51:43,1013,33,-64,0,0,1,12,55,-2,34.4,36.11,1018.16,0,0
2022-11-02 15:51:43,1013,33,-64,0,0,1,12,55,-2,34.4,36.11,1018.16,0,0
2022-11-02 15:51:43,1013,33,-64,0,0,1,12,55,-2,34.4,36.11,1018.16,0,0
2022-11-02 15:51:43,1013,33,-64,0,0,1,12,55,-2,34.4,36.11,1018.16,0,0
2022-11-02 15:51:43,1013,33,-64,0,0,1,12,55,-2,34.4,36.11,1018.16,0,0
2022-11-02 15:51:43,1013,33,-64,0,0,1,12,55,-2,34.4,36.11,1018.16,0,0
2022-11-02 15:51:43,1013,33,-64,0,0,1,12,55,-2,34.4,36.11,1018.16,0,0
2022-11-02 15:51:43,1024,37,-64,0,0,0,10,54,-5,34.4,36.11,1018.16,0,0
2022-11-02 15:51:43,1024,37,-64,0,0,0,10,54,-5,34.4,36.11,1018.16,0,0
2022-11-02 15:51:43,1024,37,-64,0,0,0,10,54,-5,34.4,36.11,1018.16,0,0
2022-11-02 15:51:43,1024,37,-64,0,0,0,10,54,-5,34.4,36.11,1018.16,0,0
2022-11-02 15:51:43,1024,37,-64,0,0,0,10,54,-5,34.4,36.11,1018.16,0,0
2022-11-02 15:51:43,1024,37,-64,0,0,0,10,54,-5,34.4,36.11,1018.16,0,0
2022-11-02 15:51:43,1024,37,-64,0,0,0,10,54,-5,34.4,36.11,1018.16,0,0
2022-11-02 15:51:43,1024,37,-64,0,0,0,10,54,-5,34.4,36.11,1018.16,0,0
2022-11-02 15:51:43,1024,37,-64,0,0,0,10,54,-5,34.4,36.11,1018.16,0,0
2022-11-02 15:51:43,1024,37,-64,0,0,0,10,54,-5,34.4,36.11,1018.16,0,0
2022-11-02 15:51:43,1024,37,-64,0,0,0,10,54,-5,34.4,36.11,1018.16,0,0
2022-11-02 15:51:43,1011,37,-58,0,0,0,12,56,-4,34.4,36.11,1018.16,0,0
2022-11-02 15:51:43,1011,37,-58,0,0,0,12,56,-4,34.4,36.11,1018.16,0,0
2022-11-02 15:51:43,1011,37,-58,0,0,0,12,56,-4,34.4,36.11,1018.16,0,0
2022-11-02 15:51:43,1011,37,-58,0,0,0,12,56,-4,34.4,36.11,1018.16,0,0
2022-11-02 15:51:43,1011,37,-58,0,0,0,12,56,-4,34.4,36.11,1018.16,0,0
2022-11-02 15:51:43,1011,37,-58,0,0,0,12,56,-4,34.4,36.11,1018.16,0,0
2022-11-02 15:51:43,1011,37,-58,0,0,0,12,56,-4,34.4,36.11,1018.16,0,0
2022-11-02 15:51:43,1011,37,-58,0,0,0,12,56,-4,34.4,36.11,1018.16,0,0
2022-11-02 15:51:43,1011,37,-58,0,0,0,12,56,-4,34.4,36.11,1018.16,0,0
2022-11-02 15:51:43,1011,37,-58,0,0,0,12,56,-4,34.4,36.11,1018.16,0,0
2022-11-02 15:51:43,1011,37,-58,0,0,0,12,56,-4,34.4,36.11,1018.16,0,0
2022-11-02 15:51:44,1022,40,-52,0,0,0,10,54,-2,34.4,36.11,1018.16,0,0
2022-11-02 15:51:44,1022,40,-52,0,0,0,10,54,-2,34.4,36.11,1018.16,0,0
2022-11-02 15:51:44,1022,40,-52,0,0,0,10,54,-2,34.4,36.11,1018.16,0,0
2022-11-02 15:51:44,1022,40,-52,0,0,0,10,54,-2,34.4,36.11,1018.16,0,0
2022-11-02 15:51:44,1022,40,-52,0,0,0,10,54,-2,34.4,36.11,1018.16,0,0
2022-11-02 15:51:44,1022,40,-52,0,0,0,10,54,-2,34.4,36.11,1018.16,0,0
2022-11-02 15:51:44,1022,40,-52,0,0,0,10,54,-2,34.4,36.11,1018.16,0,0
2022-11-02 15:51:44,1022,40,-52,0,0,0,10,54,-2,34.4,36.11,1018.16,0,0
2022-11-02 15:51:44,1022,40,-52,0,0,0,10,54,-2,34.4,36.11,1018.16,0,0
2022-11-02 15:51:44,1022,40,-52,0,0,0,10,54,-2,34.4,36.11,1018.16,0,0
2022-11-02 15:51:44,1022,40,-52,0,0,0,10,54,-2,34.4,36.11,1018.16,0,0
2022-11-02 15:51:44,1016,29,-56,0,0,0,12,52,-5,34.4,36.11,1018.16,0,0
2022-11-02 15:51:44,1016,29,-56,0,0,0,12,52,-5,34.4,36.11,1018.16,0,0
2022-11-02 15:51:44,1016,29,-56,0,0,0,12,52,-5,34.4,36.11,1018.16,0,0
2022-11-02 15:51:44,1016,29,-56,0,0,0,12,52,-5,34.4,36.11,1018.16,0,0
2022-11-02 15:51:44,1016,29,-56,0,0,0,12,52,-5,34.4,36.11,1018.16,0,0
2022-11-02 15:51:44,1016,29,-56,0,0,0,12,52,-5,34.4,36.11,1018.16,0,0
2022-11-02 15:51:44,1016,29,-56,0,0,0,12,52,-5,34.4,36.11,1018.16,0,0
2022-11-02 15:51:44,1016,29,-56,0,0,0,12,52,-5,34.4,36.11,1018.16,0,0
2022-11-02 15:51:44,1016,29,-56,0,0,0,12,52,-5,34.4,36.11,1018.16,0,0
2022-11-02 15:51:44,1016,29,-56,0,0,0,12,52,-5,34.4,36.11,1018.16,0,0
2022-11-02 15:51:44,1016,29,-56,0,0,0,12,52,-5,34.4,36.11,1018.16,0,0
2022-11-02 15:51:44,1016,27,-60,0,0,0,11,57,-2,34.4,36.11,1018.16,0,0
2022-11-02 15:51:44,1016,27,-60,0,0,0,11,57,-2,34.4,36.11,1018.16,0,0
2022-11-02 15:51:44,1016,27,-60,0,0,0,11,57,-2,34.4,36.11,1018.16,0,0
2022-11-02 15:51:44,1016,27,-60,0,0,0,11,57,-2,34.4,36.11,1018.16,0,0
2022-11-02 15:51:44,1016,27,-60,0,0,0,11,57,-2,34.4,36.11,1018.16,0,0
2022-11-02 15:51:44,1016,27,-60,0,0,0,11,57,-2,34.4,36.11,1018.16,0,0
2022-11-02 15:51:44,1016,27,-60,0,0,0,11,57,-2,34.4,36.11,1018.16,0,0
2022-11-02 15:51:44,1016,27,-60,0,0,0,11,57,-2,34.4,36.11,1018.16,0,0
2022-11-02 15:51:44,1016,27,-60,0,0,0,11,57,-2,34.4,36.11,1018.16,0,0
2022-11-02 15:51:44,1016,27,-60,0,0,0,11,57,-2,34.4,36.11,1018.16,0,0
2022-11-02 15:51:44,1016,27,-60,0,0,0,11,57,-2,34.4,36.11,1018.16,0,0
2022-11-02 15:51:44,1026,42,-62,0,0,0,11,56,-4,34.4,36.11,1018.16,0,0
2022-11-02 15:51:44,1026,42,-62,0,0,0,11,56,-4,34.4,36.11,1018.16,0,0
2022-11-02 15:51:44,1026,42,-62,0,0,0,11,56,-4,34.4,36.11,1018.16,0,0
2022-11-02 15:51:44,1026,42,-62,0,0,0,11,56,-4,34.4,36.11,1018.16,0,0
2022-11-02 15:51:44,1026,42,-62,0,0,0,11,56,-4,34.4,36.11,1018.16,0,0
2022-11-02 15:51:44,1026,42,-62,0,0,0,11,56,-4,34.4,36.11,1018.16,0,0
2022-11-02 15:51:44,1026,42,-62,0,0,0,11,56,-4,34.4,36.11,1018.16,0,0
2022-11-02 15:51:44,1026,42,-62,0,0,0,11,56,-4,34.4,36.11,1018.16,0,0
2022-11-02 15:51:44,1026,42,-62,0,0,0,11,56,-4,34.4,36.11,1018.16,0,0
2022-11-02 15:51:44,1026,42,-62,0,0,0,11,56,-4,34.4,36.11,1018.16,0,0
2022-11-02 15:51:44,1026,42,-62,0,0,0,11,56,-4,34.4,36.11,1018.16,0,0
2022-11-02 15:51:44,1028,37,-62,0,0,0,12,56,-5,34.4,36.11,1018.16,0,0
2022-11-02 15:51:44,1028,37,-62,0,0,0,12,56,-5,34.4,36.11,1018.16,0,0
2022-11-02 15:51:44,1028,37,-62,0,0,0,12,56,-5,34.4,36.11,1018.16,0,0
2022-11-02 15:51:44,1028,37,-62,0,0,0,12,56,-5,34.4,36.11,1018.16,0,0
2022-11-02 15:51:44,1028,37,-62,0,0,0,12,56,-5,34.4,36.11,1018.16,0,0
2022-11-02 15:51:44,1028,37,-62,0,0,0,12,56,-5,34.4,36.11,1018.16,0,0
2022-11-02 15:51:44,1028,37,-62,0,0,0,12,56,-5,34.4,36.11,1018.16,0,0
2022-11-02 15:51:44,1028,37,-62,0,0,0,12,56,-5,34.4,36.11,1018.16,0,0
2022-11-02 15:51:44,1028,37,-62,0,0,0,12,56,-5,34.4,36.11,1018.16,0,0
2022-11-02 15:51:44,1028,37,-62,0,0,0,12,56,-5,34.4,36.11,1018.16,0,0
2022-11-02 15:51:44,1028,37,-62,0,0,0,12,56,-5,34.4,36.11,1018.16,0,0
2022-11-02 15:51:44,1020,37,-56,0,0,0,11,56,-2,34.4,36.11,1018.16,0,0
2022-11-02 15:51:44,1020,37,-56,0,0,0,11,56,-2,34.4,36.11,1018.16,0,0
2022-11-02 15:51:44,1020,37,-56,0,0,0,11,56,-2,34.4,36.11,1018.16,0,0
2022-11-02 15:51:44,1020,37,-56,0,0,0,11,56,-2,34.4,36.11,1018.16,0,0
2022-11-02 15:51:44,1020,37,-56,0,0,0,11,56,-2,34.4,36.11,1018.16,0,0
2022-11-02 15:51:44,1020,37,-56,0,0,0,11,56,-2,34.4,36.11,1018.16,0,0
2022-11-02 15:51:44,1020,37,-56,0,0,0,11,56,-2,34.4,36.11,1018.16,0,0
2022-11-02 15:51:44,1020,37,-56,0,0,0,11,56,-2,34.4,36.11,1018.16,0,0
2022-11-02 15:51:44,1020,37,-56,0,0,0,11,56,-2,34.4,36.11,1018.16,0,0
2022-11-02 15:51:44,1020,37,-56,0,0,0,11,56,-2,34.4,36.11,1018.16,0,0
2022-11-02 15:51:44,1020,37,-56,0,0,0,11,56,-2,34.4,36.11,1018.16,0,0
2022-11-02 15:51:44,1018,33,-54,0,0,0,11,52,-5,34.4,36.11,1018.16,0,0
2022-11-02 15:51:44,1018,33,-54,0,0,0,11,52,-5,34.4,36.11,1018.16,0,0
2022-11-02 15:51:44,1018,33,-54,0,0,0,11,52,-5,34.4,36.11,1018.16,0,0
2022-11-02 15:51:44,1018,33,-54,0,0,0,11,52,-5,34.4,36.11,1018.16,0,0
2022-11-02 15:51:44,1018,33,-54,0,0,0,11,52,-5,34.4,36.11,1018.16,0,0
2022-11-02 15:51:44,1018,33,-54,0,0,0,11,52,-5,34.4,36.11,1018.16,0,0
2022-11-02 15:51:44,1018,33,-54,0,0,0,11,52,-5,34.4,36.11,1018.16,0,0
2022-11-02 15:51:44,1018,33,-54,0,0,0,11,52,-5,34.4,36.11,1018.16,0,0
2022-11-02 15:51:44,1018,33,-54,0,0,0,11,52,-5,34.4,36.11,1018.16,0,0
2022-11-02 15:51:44,1018,33,-54,0,0,0,11,52,-5,34.4,36.11,1018.16,0,0
2022-11-02 15:51:44,1018,33,-54,0,0,0,11,52,-5,34.4,36.11,1018.16,0,0
2022-11-02 15:51:44,1018,48,-54,0,1,0,13,56,-6,34.4,36.11,1018.16,0,0
2022-11-02 15:51:44,1018,48,-54,0,1,0,13,56,-6,34.4,36.11,1018.16,0,0
2022-11-02 15:51:44,1018,48,-54,0,1,0,13,56,-6,34.4,36.11,1018.16,0,0
2022-11-02 15:51:44,1018,48,-54,0,1,0,13,56,-6,34.4,36.11,1018.16,0,0
2022-11-02 15:51:44,1018,48,-54,0,1,0,13,56,-6,34.4,36.11,1018.16,0,0
2022-11-02 15:51:44,1018,48,-54,0,1,0,13,56,-6,34.4,36.11,1018.16,0,0
2022-11-02 15:51:44,1018,48,-54,0,1,0,13,56,-6,34.4,36.11,1018.16,0,0
2022-11-02 15:51:44,1018,48,-54,0,1,0,13,56,-6,34.4,36.11,1018.16,0,0
2022-11-02 15:51:44,1018,48,-54,0,1,0,13,56,-6,34.4,36.11,1018.16,0,0
2022-11-02 15:51:44,1018,48,-54,0,1,0,13,56,-6,34.4,36.11,1018.16,0,0
2022-11-02 15:51:44,1018,48,-54,0,1,0,13,56,-6,34.4,36.11,1018.16,0,0
2022-11-02 15:51:44,1018,37,-56,0,0,0,10,53,-6,34.4,36.11,1018.16,0,0
2022-11-02 15:51:44,1018,37,-56,0,0,0,10,53,-6,34.4,36.11,1018.16,0,0
2022-11-02 15:51:44,1018,37,-56,0,0,0,10,53,-6,34.4,36.11,1018.16,0,0
2022-11-02 15:51:44,1018,37,-56,0,0,0,10,53,-6,34.4,36.11,1018.16,0,0
2022-11-02 15:51:44,1018,37,-56,0,0,0,10,53,-6,34.4,36.11,1018.16,0,0
2022-11-02 15:51:44,1018,37,-56,0,0,0,10,53,-6,34.4,36.11,1018.16,0,0
2022-11-02 15:51:44,1018,37,-56,0,0,0,10,53,-6,34.4,36.11,1018.16,0,0
2022-11-02 15:51:44,1018,37,-56,0,0,0,10,53,-6,34.4,36.11,1018.16,0,0
2022-11-02 15:51:44,1018,37,-56,0,0,0,10,53,-6,34.4,36.11,1018.16,0,0
2022-11-02 15:51:44,1018,37,-56,0,0,0,10,53,-6,34.4,36.11,1018.16,0,0
2022-11-02 15:51:44,1018,37,-56,0,0,0,10,53,-6,34.4,36.11,1018.16,0,0
2022-11-02 15:51:44,1024,39,-54,0,0,0,12,57,-1,34.4,36.11,1018.16,0,0
2022-11-02 15:51:44,1024,39,-54,0,0,0,12,57,-1,34.4,36.11,1018.16,0,0
2022-11-02 15:51:44,1024,39,-54,0,0,0,12,57,-1,34.4,36.11,1018.16,0,0
2022-11-02 15:51:44,1024,39,-54,0,0,0,12,57,-1,34.4,36.11,1018.16,0,0
2022-11-02 15:51:44,1024,39,-54,0,0,0,12,57,-1,34.4,36.11,1018.16,0,0
2022-11-02 15:51:44,1024,39,-54,0,0,0,12,57,-1,34.4,36.11,1018.16,0,0
2022-11-02 15:51:44,1024,39,-54,0,0,0,12,57,-1,34.4,36.11,1018.16,0,0
2022-11-02 15:51:44,1024,39,-54,0,0,0,12,57,-1,34.4,36.11,1018.16,0,0
2022-11-02 15:51:44,1024,39,-54,0,0,0,12,57,-1,34.4,36.11,1018.16,0,0
2022-11-02 15:51:44,1024,39,-54,0,0,0,12,57,-1,34.4,36.11,1018.16,0,0
2022-11-02 15:51:44,1024,39,-54,0,0,0,12,57,-1,34.4,36.11,1018.16,0,0
2022-11-02 15:51:45,1020,40,-64,0,0,0,11,54,-3,34.4,36.11,1018.16,0,0
2022-11-02 15:51:45,1020,40,-64,0,0,0,11,54,-3,34.4,36.11,1018.16,0,0
2022-11-02 15:51:45,1020,40,-64,0,0,0,11,54,-3,34.4,36.11,1018.16,0,0
2022-11-02 15:51:45,1020,40,-64,0,0,0,11,54,-3,34.4,36.11,1018.16,0,0
2022-11-02 15:51:45,1020,40,-64,0,0,0,11,54,-3,34.4,36.11,1018.16,0,0
2022-11-02 15:51:45,1020,40,-64,0,0,0,11,54,-3,34.4,36.11,1018.16,0,0
2022-11-02 15:51:45,1020,40,-64,0,0,0,11,54,-3,34.4,36.11,1018.16,0,0
2022-11-02 15:51:45,1020,40,-64,0,0,0,11,54,-3,34.4,36.11,1018.16,0,0
2022-11-02 15:51:45,1020,40,-64,0,0,0,11,54,-3,34.4,36.11,1018.16,0,0
2022-11-02 15:51:45,1020,40,-64,0,0,0,11,54,-3,34.4,36.11,1018.16,0,0
2022-11-02 15:51:45,1020,40,-64,0,0,0,11,54,-3,34.4,36.11,1018.16,0,0
2022-11-02 15:51:45,1018,37,-52,0,1,0,11,54,-5,34.4,36.11,1018.16,0,0
2022-11-02 15:51:45,1018,37,-52,0,1,0,11,54,-5,34.4,36.11,1018.16,0,0
2022-11-02 15:51:45,1018,37,-52,0,1,0,11,54,-5,34.4,36.11,1018.16,0,0
2022-11-02 15:51:45,1018,37,-52,0,1,0,11,54,-5,34.4,36.11,1018.16,0,0
2022-11-02 15:51:45,1018,37,-52,0,1,0,11,54,-5,34.4,36.11,1018.16,0,0
2022-11-02 15:51:45,1018,37,-52,0,1,0,11,54,-5,34.4,36.11,1018.16,0,0
2022-11-02 15:51:45,1018,37,-52,0,1,0,11,54,-5,34.4,36.11,1018.16,0,0
2022-11-02 15:51:45,1018,37,-52,0,1,0,11,54,-5,34.4,36.11,1018.16,0,0
2022-11-02 15:51:45,1018,37,-52,0,1,0,11,54,-5,34.4,36.11,1018.16,0,0
2022-11-02 15:51:45,1018,37,-52,0,1,0,11,54,-5,34.4,36.11,1018.16,0,0
2022-11-02 15:51:45,1018,37,-52,0,1,0,11,54,-5,34.4,36.11,1018.16,0,0
2022-11-02 15:51:45,1013,40,-64,0,0,0,12,54,-5,34.4,36.1,1018.15,0,0
2022-11-02 15:51:45,1013,40,-64,0,0,0,12,54,-5,34.4,36.1,1018.15,0,0
2022-11-02 15:51:45,1013,40,-64,0,0,0,12,54,-5,34.4,36.1,1018.15,0,0
2022-11-02 15:51:45,1013,40,-64,0,0,0,12,54,-5,34.4,36.1,1018.15,0,0
2022-11-02 15:51:45,1013,40,-64,0,0,0,12,54,-5,34.4,36.1,1018.15,0,0
2022-11-02 15:51:45,1013,40,-64,0,0,0,12,54,-5,34.4,36.1,1018.15,0,0
2022-11-02 15:51:45,1013,40,-64,0,0,0,12,54,-5,34.4,36.1,1018.15,0,0
2022-11-02 15:51:45,1013,40,-64,0,0,0,12,54,-5,34.4,36.1,1018.15,0,0
2022-11-02 15:51:45,1013,40,-64,0,0,0,12,54,-5,34.4,36.1,1018.15,0,0
2022-11-02 15:51:45,1013,40,-64,0,0,0,12,54,-5,34.4,36.1,1018.15,0,0
2022-11-02 15:51:45,1013,40,-64,0,0,0,12,54,-5,34.4,36.1,1018.15,0,0
2022-11-02 15:51:45,1018,40,-52,0,1,0,12,54,-3,34.4,36.1,1018.15,0,0
2022-11-02 15:51:45,1018,40,-52,0,1,0,12,54,-3,34.4,36.1,1018.15,0,0
2022-11-02 15:51:45,1018,40,-52,0,1,0,12,54,-3,34.4,36.1,1018.15,0,0
2022-11-02 15:51:45,1018,40,-52,0,1,0,12,54,-3,34.4,36.1,1018.15,0,0
2022-11-02 15:51:45,1018,40,-52,0,1,0,12,54,-3,34.4,36.1,1018.15,0,0
2022-11-02 15:51:45,1018,40,-52,0,1,0,12,54,-3,34.4,36.1,1018.15,0,0
2022-11-02 15:51:45,1018,40,-52,0,1,0,12,54,-3,34.4,36.1,1018.15,0,0
2022-11-02 15:51:45,1018,40,-52,0,1,0,12,54,-3,34.4,36.1,1018.15,0,0
2022-11-02 15:51:45,1018,40,-52,0,1,0,12,54,-3,34.4,36.1,1018.15,0,0
2022-11-02 15:51:45,1018,40,-52,0,1,0,12,54,-3,34.4,36.1,1018.15,0,0
2022-11-02 15:51:45,1018,40,-52,0,1,0,12,54,-3,34.4,36.1,1018.15,0,0
2022-11-02 15:51:45,1024,39,-58,0,0,0,11,56,-10,34.4,36.1,1018.15,0,0
2022-11-02 15:51:45,1024,39,-58,0,0,0,11,56,-10,34.4,36.1,1018.15,0,0
2022-11-02 15:51:45,1024,39,-58,0,0,0,11,56,-10,34.4,36.1,1018.15,0,0
2022-11-02 15:51:45,1024,39,-58,0,0,0,11,56,-10,34.4,36.1,1018.15,0,0
2022-11-02 15:51:45,1024,39,-58,0,0,0,11,56,-10,34.4,36.1,1018.15,0,0
2022-11-02 15:51:45,1024,39,-58,0,0,0,11,56,-10,34.4,36.1,1018.15,0,0
2022-11-02 15:51:45,1024,39,-58,0,0,0,11,56,-10,34.4,36.1,1018.15,0,0
2022-11-02 15:51:45,1024,39,-58,0,0,0,11,56,-10,34.4,36.1,1018.15,0,0
2022-11-02 15:51:45,1024,39,-58,0,0,0,11,56,-10,34.4,36.1,1018.15,0,0
2022-11-02 15:51:45,1024,39,-58,0,0,0,11,56,-10,34.4,36.1,1018.15,0,0
2022-11-02 15:51:45,1024,39,-58,0,0,0,11,56,-10,34.4,36.1,1018.15,0,0
2022-11-02 15:51:45,1020,48,-60,0,0,0,11,56,-8,34.4,36.1,1018.15,0,0
2022-11-02 15:51:45,1020,48,-60,0,0,0,11,56,-8,34.4,36.1,1018.15,0,0
2022-11-02 15:51:45,1020,48,-60,0,0,0,11,56,-8,34.4,36.1,1018.15,0,0
2022-11-02 15:51:45,1020,48,-60,0,0,0,11,56,-8,34.4,36.1,1018.15,0,0
2022-11-02 15:51:45,1020,48,-60,0,0,0,11,56,-8,34.4,36.1,1018.15,0,0
2022-11-02 15:51:45,1020,48,-60,0,0,0,11,56,-8,34.4,36.1,1018.15,0,0
2022-11-02 15:51:45,1020,48,-60,0,0,0,11,56,-8,34.4,36.1,1018.15,0,0
2022-11-02 15:51:45,1020,48,-60,0,0,0,11,56,-8,34.4,36.1,1018.15,0,0
2022-11-02 15:51:45,1020,48,-60,0,0,0,11,56,-8,34.4,36.1,1018.15,0,0
2022-11-02 15:51:45,1020,48,-60,0,0,0,11,56,-8,34.4,36.1,1018.15,0,0
2022-11-02 15:51:45,1020,48,-60,0,0,0,11,56,-8,34.4,36.1,1018.15,0,0
2022-11-02 15:51:45,1016,42,-56,0,0,0,12,57,-12,34.4,36.1,1018.15,0,0
2022-11-02 15:51:45,1016,42,-56,0,0,0,12,57,-12,34.4,36.1,1018.15,0,0
2022-11-02 15:51:45,1016,42,-56,0,0,0,12,57,-12,34.4,36.1,1018.15,0,0
2022-11-02 15:51:45,1016,42,-56,0,0,0,12,57,-12,34.4,36.1,1018.15,0,0
2022-11-02 15:51:45,1016,42,-56,0,0,0,12,57,-12,34.4,36.1,1018.15,0,0
2022-11-02 15:51:45,1016,42,-56,0,0,0,12,57,-12,34.4,36.1,1018.15,0,0
2022-11-02 15:51:45,1016,42,-56,0,0,0,12,57,-12,34.4,36.1,1018.15,0,0
2022-11-02 15:51:45,1016,42,-56,0,0,0,12,57,-12,34.4,36.1,1018.15,0,0
2022-11-02 15:51:45,1016,42,-56,0,0,0,12,57,-12,34.4,36.1,1018.15,0,0
2022-11-02 15:51:45,1016,42,-56,0,0,0,12,57,-12,34.4,36.1,1018.15,0,0
2022-11-02 15:51:45,1016,42,-56,0,0,0,12,57,-12,34.4,36.1,1018.15,0,0
2022-11-02 15:51:45,1028,46,-56,0,0,0,10,56,-1,34.4,36.1,1018.15,0,0
2022-11-02 15:51:45,1028,46,-56,0,0,0,10,56,-1,34.4,36.1,1018.15,0,0
2022-11-02 15:51:45,1028,46,-56,0,0,0,10,56,-1,34.4,36.1,1018.15,0,0
2022-11-02 15:51:45,1028,46,-56,0,0,0,10,56,-1,34.4,36.1,1018.15,0,0
2022-11-02 15:51:45,1028,46,-56,0,0,0,10,56,-1,34.4,36.1,1018.15,0,0
2022-11-02 15:51:45,1028,46,-56,0,0,0,10,56,-1,34.4,36.1,1018.15,0,0
2022-11-02 15:51:45,1028,46,-56,0,0,0,10,56,-1,34.4,36.1,1018.15,0,0
2022-11-02 15:51:45,1028,46,-56,0,0,0,10,56,-1,34.4,36.1,1018.15,0,0
2022-11-02 15:51:45,1028,46,-56,0,0,0,10,56,-1,34.4,36.1,1018.15,0,0
2022-11-02 15:51:45,1028,46,-56,0,0,0,10,56,-1,34.4,36.1,1018.15,0,0
2022-11-02 15:51:45,1028,46,-56,0,0,0,10,56,-1,34.4,36.1,1018.15,0,0
2022-11-02 15:51:45,1018,44,-58,0,0,0,12,53,-3,34.4,36.1,1018.15,0,0
2022-11-02 15:51:45,1018,44,-58,0,0,0,12,53,-3,34.4,36.1,1018.15,0,0
2022-11-02 15:51:45,1018,44,-58,0,0,0,12,53,-3,34.4,36.1,1018.15,0,0
2022-11-02 15:51:45,1018,44,-58,0,0,0,12,53,-3,34.4,36.1,1018.15,0,0
2022-11-02 15:51:45,1018,44,-58,0,0,0,12,53,-3,34.4,36.1,1018.15,0,0
2022-11-02 15:51:45,1018,44,-58,0,0,0,12,53,-3,34.4,36.1,1018.15,0,0
2022-11-02 15:51:45,1018,44,-58,0,0,0,12,53,-3,34.4,36.1,1018.15,0,0
2022-11-02 15:51:45,1018,44,-58,0,0,0,12,53,-3,34.4,36.1,1018.15,0,0
2022-11-02 15:51:45,1018,44,-58,0,0,0,12,53,-3,34.4,36.1,1018.15,0,0
2022-11-02 15:51:45,1018,44,-58,0,0,0,12,53,-3,34.4,36.1,1018.15,0,0
2022-11-02 15:51:45,1018,44,-58,0,0,0,12,53,-3,34.4,36.1,1018.15,0,0
2022-11-02 15:51:45,1015,39,-52,0,0,0,11,56,-1,34.4,36.1,1018.15,0,0
2022-11-02 15:51:45,1015,39,-52,0,0,0,11,56,-1,34.4,36.1,1018.15,0,0
2022-11-02 15:51:45,1015,39,-52,0,0,0,11,56,-1,34.4,36.1,1018.15,0,0
2022-11-02 15:51:45,1015,39,-52,0,0,0,11,56,-1,34.4,36.1,1018.15,0,0
2022-11-02 15:51:45,1015,39,-52,0,0,0,11,56,-1,34.4,36.1,1018.15,0,0
2022-11-02 15:51:45,1015,39,-52,0,0,0,11,56,-1,34.4,36.1,1018.15,0,0
2022-11-02 15:51:45,1015,39,-52,0,0,0,11,56,-1,34.4,36.1,1018.15,0,0
2022-11-02 15:51:45,1015,39,-52,0,0,0,11,56,-1,34.4,36.1,1018.15,0,0
2022-11-02 15:51:45,1015,39,-52,0,0,0,11,56,-1,34.4,36.1,1018.15,0,0
2022-11-02 15:51:45,1015,39,-52,0,0,0,11,56,-1,34.4,36.1,1018.15,0,0
2022-11-02 15:51:45,1015,39,-52,0,0,0,11,56,-1,34.4,36.1,1018.15,0,0
2022-11-02 15:51:46,1026,46,-60,0,0,0,9,57,-6,34.4,36.1,1018.15,0,0
2022-11-02 15:51:46,1026,46,-60,0,0,0,9,57,-6,34.4,36.1,1018.15,0,0
2022-11-02 15:51:46,1026,46,-60,0,0,0,9,57,-6,34.4,36.1,1018.15,0,0
2022-11-02 15:51:46,1026,46,-60,0,0,0,9,57,-6,34.4,36.1,1018.15,0,0
2022-11-02 15:51:46,1026,46,-60,0,0,0,9,57,-6,34.4,36.1,1018.15,0,0
2022-11-02 15:51:46,1026,46,-60,0,0,0,9,57,-6,34.4,36.1,1018.15,0,0
2022-11-02 15:51:46,1026,46,-60,0,0,0,9,57,-6,34.4,36.1,1018.15,0,0
2022-11-02 15:51:46,1026,46,-60,0,0,0,9,57,-6,34.4,36.1,1018.15,0,0
2022-11-02 15:51:46,1026,46,-60,0,0,0,9,57,-6,34.4,36.1,1018.15,0,0
2022-11-02 15:51:46,1026,46,-60,0,0,0,9,57,-6,34.4,36.1,1018.15,0,0
2022-11-02 15:51:46,1026,46,-60,0,0,0,9,57,-6,34.4,36.1,1018.15,0,0
2022-11-02 15:51:46,1018,40,-46,-1,1,0,10,54,0,34.4,36.1,1018.15,0,0
2022-11-02 15:51:46,1018,40,-46,-1,1,0,10,54,0,34.4,36.1,1018.15,0,0
2022-11-02 15:51:46,1018,40,-46,-1,1,0,10,54,0,34.4,36.1,1018.15,0,0
2022-11-02 15:51:46,1018,40,-46,-1,1,0,10,54,0,34.4,36.1,1018.15,0,0
2022-11-02 15:51:46,1018,40,-46,-1,1,0,10,54,0,34.4,36.1,1018.15,0,0
2022-11-02 15:51:46,1018,40,-46,-1,1,0,10,54,0,34.4,36.1,1018.15,0,0
2022-11-02 15:51:46,1018,40,-46,-1,1,0,10,54,0,34.4,36.1,1018.15,0,0
2022-11-02 15:51:46,1018,40,-46,-1,1,0,10,54,0,34.4,36.1,1018.15,0,0
2022-11-02 15:51:46,1018,40,-46,-1,1,0,10,54,0,34.4,36.1,1018.15,0,0
2022-11-02 15:51:46,1018,40,-46,-1,1,0,10,54,0,34.4,36.1,1018.15,0,0
2022-11-02 15:51:46,1018,40,-46,-1,1,0,10,54,0,34.4,36.1,1018.15,0,0
2022-11-02 15:51:46,1020,39,-44,0,0,0,12,54,-6,34.4,36.1,1018.09,0,0
2022-11-02 15:51:46,1020,39,-44,0,0,0,12,54,-6,34.4,36.1,1018.09,0,0
2022-11-02 15:51:46,1020,39,-44,0,0,0,12,54,-6,34.4,36.1,1018.09,0,0
2022-11-02 15:51:46,1020,39,-44,0,0,0,12,54,-6,34.4,36.1,1018.09,0,0
2022-11-02 15:51:46,1020,39,-44,0,0,0,12,54,-6,34.4,36.1,1018.09,0,0
2022-11-02 15:51:46,1020,39,-44,0,0,0,12,54,-6,34.4,36.1,1018.09,0,0
2022-11-02 15:51:46,1020,39,-44,0,0,0,12,54,-6,34.4,36.1,1018.09,0,0
2022-11-02 15:51:46,1020,39,-44,0,0,0,12,54,-6,34.4,36.1,1018.09,0,0
2022-11-02 15:51:46,1020,39,-44,0,0,0,12,54,-6,34.4,36.1,1018.09,0,0
2022-11-02 15:51:46,1020,39,-44,0,0,0,12,54,-6,34.4,36.1,1018.09,0,0
2022-11-02 15:51:46,1020,39,-44,0,0,0,12,54,-6,34.4,36.1,1018.09,0,0
2022-11-02 15:51:46,1018,35,-54,0,0,0,11,56,-6,34.4,36.1,1018.09,0,0
2022-11-02 15:51:46,1018,35,-54,0,0,0,11,56,-6,34.4,36.1,1018.09,0,0
2022-11-02 15:51:46,1018,35,-54,0,0,0,11,56,-6,34.4,36.1,1018.09,0,0
2022-11-02 15:51:46,1018,35,-54,0,0,0,11,56,-6,34.4,36.1,1018.09,0,0
2022-11-02 15:51:46,1018,35,-54,0,0,0,11,56,-6,34.4,36.1,1018.09,0,0
2022-11-02 15:51:46,1018,35,-54,0,0,0,11,56,-6,34.4,36.1,1018.09,0,0
2022-11-02 15:51:46,1018,35,-54,0,0,0,11,56,-6,34.4,36.1,1018.09,0,0
2022-11-02 15:51:46,1018,35,-54,0,0,0,11,56,-6,34.4,36.1,1018.09,0,0
2022-11-02 15:51:46,1018,35,-54,0,0,0,11,56,-6,34.4,36.1,1018.09,0,0
2022-11-02 15:51:46,1018,35,-54,0,0,0,11,56,-6,34.4,36.1,1018.09,0,0
2022-11-02 15:51:46,1018,35,-54,0,0,0,11,56,-6,34.4,36.1,1018.09,0,0
2022-11-02 15:51:46,1024,35,-52,0,0,0,13,57,0,34.4,36.1,1018.09,0,0
2022-11-02 15:51:46,1024,35,-52,0,0,0,13,57,0,34.4,36.1,1018.09,0,0
2022-11-02 15:51:46,1024,35,-52,0,0,0,13,57,0,34.4,36.1,1018.09,0,0
2022-11-02 15:51:46,1024,35,-52,0,0,0,13,57,0,34.4,36.1,1018.09,0,0
2022-11-02 15:51:46,1024,35,-52,0,0,0,13,57,0,34.4,36.1,1018.09,0,0
2022-11-02 15:51:46,1024,35,-52,0,0,0,13,57,0,34.4,36.1,1018.09,0,0
2022-11-02 15:51:46,1024,35,-52,0,0,0,13,57,0,34.4,36.1,1018.09,0,0
2022-11-02 15:51:46,1024,35,-52,0,0,0,13,57,0,34.4,36.1,1018.09,0,0
2022-11-02 15:51:46,1024,35,-52,0,0,0,13,57,0,34.4,36.1,1018.09,0,0
2022-11-02 15:51:46,1024,35,-52,0,0,0,13,57,0,34.4,36.1,1018.09,0,0
2022-11-02 15:51:46,1024,35,-52,0,0,0,13,57,0,34.4,36.1,1018.09,0,0
2022-11-02 15:51:46,1016,39,-52,0,0,0,12,56,-8,34.4,36.1,1018.09,0,0
2022-11-02 15:51:46,1016,39,-52,0,0,0,12,56,-8,34.4,36.1,1018.09,0,0
2022-11-02 15:51:46,1016,39,-52,0,0,0,12,56,-8,34.4,36.1,1018.09,0,0
2022-11-02 15:51:46,1016,39,-52,0,0,0,12,56,-8,34.4,36.1,1018.09,0,0
2022-11-02 15:51:46,1016,39,-52,0,0,0,12,56,-8,34.4,36.1,1018.09,0,0
2022-11-02 15:51:46,1016,39,-52,0,0,0,12,56,-8,34.4,36.1,1018.09,0,0
2022-11-02 15:51:46,1016,39,-52,0,0,0,12,56,-8,34.4,36.1,1018.09,0,0
2022-11-02 15:51:46,1016,39,-52,0,0,0,12,56,-8,34.4,36.1,1018.09,0,0
2022-11-02 15:51:46,1016,39,-52,0,0,0,12,56,-8,34.4,36.1,1018.09,0,0
2022-11-02 15:51:46,1016,39,-52,0,0,0,12,56,-8,34.4,36.1,1018.09,0,0
2022-11-02 15:51:46,1016,39,-52,0,0,0,12,56,-8,34.4,36.1,1018.09,0,0
2022-11-02 15:51:46,1016,33,-50,0,0,0,12,58,-4,34.4,36.1,1018.09,0,0
2022-11-02 15:51:46,1016,33,-50,0,0,0,12,58,-4,34.4,36.1,1018.09,0,0
2022-11-02 15:51:46,1016,33,-50,0,0,0,12,58,-4,34.4,36.1,1018.09,0,0
2022-11-02 15:51:46,1016,33,-50,0,0,0,12,58,-4,34.4,36.1,1018.09,0,0
2022-11-02 15:51:46,1016,33,-50,0,0,0,12,58,-4,34.4,36.1,1018.09,0,0
2022-11-02 15:51:46,1016,33,-50,0,0,0,12,58,-4,34.4,36.1,1018.09,0,0
2022-11-02 15:51:46,1016,33,-50,0,0,0,12,58,-4,34.4,36.1,1018.09,0,0
2022-11-02 15:51:46,1016,33,-50,0,0,0,12,58,-4,34.4,36.1,1018.09,0,0
2022-11-02 15:51:46,1016,33,-50,0,0,0,12,58,-4,34.4,36.1,1018.09,0,0
2022-11-02 15:51:46,1016,33,-50,0,0,0,12,58,-4,34.4,36.1,1018.09,0,0
2022-11-02 15:51:46,1016,33,-50,0,0,0,12,58,-4,34.4,36.1,1018.09,0,0
2022-11-02 15:51:46,1024,33,-46,0,0,0,10,55,-6,34.4,36.1,1018.09,0,0
2022-11-02 15:51:46,1024,33,-46,0,0,0,10,55,-6,34.4,36.1,1018.09,0,0
2022-11-02 15:51:46,1024,33,-46,0,0,0,10,55,-6,34.4,36.1,1018.09,0,0
2022-11-02 15:51:46,1024,33,-46,0,0,0,10,55,-6,34.4,36.1,1018.09,0,0
2022-11-02 15:51:46,1024,33,-46,0,0,0,10,55,-6,34.4,36.1,1018.09,0,0
2022-11-02 15:51:46,1024,33,-46,0,0,0,10,55,-6,34.4,36.1,1018.09,0,0
2022-11-02 15:51:46,1024,33,-46,0,0,0,10,55,-6,34.4,36.1,1018.09,0,0
2022-11-02 15:51:46,1024,33,-46,0,0,0,10,55,-6,34.4,36.1,1018.09,0,0
2022-11-02 15:51:46,1024,33,-46,0,0,0,10,55,-6,34.4,36.1,1018.09,0,0
2022-11-02 15:51:46,1024,33,-46,0,0,0,10,55,-6,34.4,36.1,1018.09,0,0
2022-11-02 15:51:46,1024,33,-46,0,0,0,10,55,-6,34.4,36.1,1018.09,0,0
2022-11-02 15:51:46,1016,42,-48,0,0,0,11,53,-6,34.4,36.1,1018.09,0,0
2022-11-02 15:51:46,1016,42,-48,0,0,0,11,53,-6,34.4,36.1,1018.09,0,0
2022-11-02 15:51:46,1016,42,-48,0,0,0,11,53,-6,34.4,36.1,1018.09,0,0
2022-11-02 15:51:46,1016,42,-48,0,0,0,11,53,-6,34.4,36.1,1018.09,0,0
2022-11-02 15:51:46,1016,42,-48,0,0,0,11,53,-6,34.4,36.1,1018.09,0,0
2022-11-02 15:51:46,1016,42,-48,0,0,0,11,53,-6,34.4,36.1,1018.09,0,0
2022-11-02 15:51:46,1016,42,-48,0,0,0,11,53,-6,34.4,36.1,1018.09,0,0
2022-11-02 15:51:46,1016,42,-48,0,0,0,11,53,-6,34.4,36.1,1018.09,0,0
2022-11-02 15:51:46,1016,42,-48,0,0,0,11,53,-6,34.4,36.1,1018.09,0,0
2022-11-02 15:51:46,1016,42,-48,0,0,0,11,53,-6,34.4,36.1,1018.09,0,0
2022-11-02 15:51:46,1016,42,-48,0,0,0,11,53,-6,34.4,36.1,1018.09,0,0
2022-11-02 15:51:46,1024,31,-50,0,0,0,11,54,-4,34.4,36.1,1018.09,0,0
2022-11-02 15:51:46,1024,31,-50,0,0,0,11,54,-4,34.4,36.1,1018.09,0,0
2022-11-02 15:51:46,1024,31,-50,0,0,0,11,54,-4,34.4,36.1,1018.09,0,0
2022-11-02 15:51:46,1024,31,-50,0,0,0,11,54,-4,34.4,36.1,1018.09,0,0
2022-11-02 15:51:46,1024,31,-50,0,0,0,11,54,-4,34.4,36.1,1018.09,0,0
2022-11-02 15:51:46,1024,31,-50,0,0,0,11,54,-4,34.4,36.1,1018.09,0,0
2022-11-02 15:51:46,1024,31,-50,0,0,0,11,54,-4,34.4,36.1,1018.09,0,0
2022-11-02 15:51:46,1024,31,-50,0,0,0,11,54,-4,34.4,36.1,1018.09,0,0
2022-11-02 15:51:46,1024,31,-50,0,0,0,11,54,-4,34.4,36.1,1018.09,0,0
2022-11-02 15:51:46,1024,31,-50,0,0,0,11,54,-4,34.4,36.1,1018.09,0,0
2022-11-02 15:51:46,1024,31,-50,0,0,0,11,54,-4,34.4,36.1,1018.09,0,0
2022-11-02 15:51:47,1028,25,-60,0,0,0,11,54,-3,34.4,36.1,1018.09,0,0
2022-11-02 15:51:47,1028,25,-60,0,0,0,11,54,-3,34.4,36.1,1018.09,0,0
2022-11-02 15:51:47,1028,25,-60,0,0,0,11,54,-3,34.4,36.1,1018.09,0,0
2022-11-02 15:51:47,1028,25,-60,0,0,0,11,54,-3,34.4,36.1,1018.09,0,0
2022-11-02 15:51:47,1028,25,-60,0,0,0,11,54,-3,34.4,36.1,1018.09,0,0
2022-11-02 15:51:47,1028,25,-60,0,0,0,11,54,-3,34.4,36.1,1018.09,0,0
2022-11-02 15:51:47,1028,25,-60,0,0,0,11,54,-3,34.4,36.1,1018.09,0,0
2022-11-02 15:51:47,1028,25,-60,0,0,0,11,54,-3,34.4,36.1,1018.09,0,0
2022-11-02 15:51:47,1028,25,-60,0,0,0,11,54,-3,34.4,36.1,1018.09,0,0
2022-11-02 15:51:47,1028,25,-60,0,0,0,11,54,-3,34.4,36.1,1018.09,0,0
2022-11-02 15:51:47,1028,25,-60,0,0,0,11,54,-3,34.4,36.1,1018.09,0,0
2022-11-02 15:51:47,1016,39,-46,0,0,0,12,56,-12,34.4,36.1,1018.09,0,0
2022-11-02 15:51:47,1016,39,-46,0,0,0,12,56,-12,34.4,36.1,1018.09,0,0
2022-11-02 15:51:47,1016,39,-46,0,0,0,12,56,-12,34.4,36.1,1018.09,0,0
2022-11-02 15:51:47,1016,39,-46,0,0,0,12,56,-12,34.4,36.1,1018.09,0,0
2022-11-02 15:51:47,1016,39,-46,0,0,0,12,56,-12,34.4,36.1,1018.09,0,0
2022-11-02 15:51:47,1016,39,-46,0,0,0,12,56,-12,34.4,36.1,1018.09,0,0
2022-11-02 15:51:47,1016,39,-46,0,0,0,12,56,-12,34.4,36.1,1018.09,0,0
2022-11-02 15:51:47,1016,39,-46,0,0,0,12,56,-12,34.4,36.1,1018.09,0,0
2022-11-02 15:51:47,1016,39,-46,0,0,0,12,56,-12,34.4,36.1,1018.09,0,0
2022-11-02 15:51:47,1016,39,-46,0,0,0,12,56,-12,34.4,36.1,1018.09,0,0
2022-11-02 15:51:47,1016,39,-46,0,0,0,12,56,-12,34.4,36.1,1018.09,0,0
2022-11-02 15:51:47,1020,33,-48,0,0,0,11,56,-3,34.4,36.1,1018.13,0,0
2022-11-02 15:51:47,1020,33,-48,0,0,0,11,56,-3,34.4,36.1,1018.13,0,0
2022-11-02 15:51:47,1020,33,-48,0,0,0,11,56,-3,34.4,36.1,1018.13,0,0
2022-11-02 15:51:47,1020,33,-48,0,0,0,11,56,-3,34.4,36.1,1018.13,0,0
2022-11-02 15:51:47,1020,33,-48,0,0,0,11,56,-3,34.4,36.1,1018.13,0,0
2022-11-02 15:51:47,1020,33,-48,0,0,0,11,56,-3,34.4,36.1,1018.13,0,0
2022-11-02 15:51:47,1020,33,-48,0,0,0,11,56,-3,34.4,36.1,1018.13,0,0
2022-11-02 15:51:47,1020,33,-48,0,0,0,11,56,-3,34.4,36.1,1018.13,0,0
2022-11-02 15:51:47,1020,33,-48,0,0,0,11,56,-3,34.4,36.1,1018.13,0,0
2022-11-02 15:51:47,1020,33,-48,0,0,0,11,56,-3,34.4,36.1,1018.13,0,0
2022-11-02 15:51:47,1020,33,-48,0,0,0,11,56,-3,34.4,36.1,1018.13,0,0
2022-11-02 15:51:47,1024,37,-54,0,0,0,12,57,-4,34.4,36.1,1018.13,0,0
2022-11-02 15:51:47,1024,37,-54,0,0,0,12,57,-4,34.4,36.1,1018.13,0,0
2022-11-02 15:51:47,1024,37,-54,0,0,0,12,57,-4,34.4,36.1,1018.13,0,0
2022-11-02 15:51:47,1024,37,-54,0,0,0,12,57,-4,34.4,36.1,1018.13,0,0
2022-11-02 15:51:47,1024,37,-54,0,0,0,12,57,-4,34.4,36.1,1018.13,0,0
2022-11-02 15:51:47,1024,37,-54,0,0,0,12,57,-4,34.4,36.1,1018.13,0,0
2022-11-02 15:51:47,1024,37,-54,0,0,0,12,57,-4,34.4,36.1,1018.13,0,0
2022-11-02 15:51:47,1024,37,-54,0,0,0,12,57,-4,34.4,36.1,1018.13,0,0
2022-11-02 15:51:47,1024,37,-54,0,0,0,12,57,-4,34.4,36.1,1018.13,0,0
2022-11-02 15:51:47,1024,37,-54,0,0,0,12,57,-4,34.4,36.1,1018.13,0,0
2022-11-02 15:51:47,1024,37,-54,0,0,0,12,57,-4,34.4,36.1,1018.13,0,0
2022-11-02 15:51:47,1018,39,-62,0,0,0,12,54,-3,34.4,36.1,1018.13,0,0
2022-11-02 15:51:47,1018,39,-62,0,0,0,12,54,-3,34.4,36.1,1018.13,0,0
2022-11-02 15:51:47,1018,39,-62,0,0,0,12,54,-3,34.4,36.1,1018.13,0,0
2022-11-02 15:51:47,1018,39,-62,0,0,0,12,54,-3,34.4,36.1,1018.13,0,0
2022-11-02 15:51:47,1018,39,-62,0,0,0,12,54,-3,34.4,36.1,1018.13,0,0
2022-11-02 15:51:47,1018,39,-62,0,0,0,12,54,-3,34.4,36.1,1018.13,0,0
2022-11-02 15:51:47,1018,39,-62,0,0,0,12,54,-3,34.4,36.1,1018.13,0,0
2022-11-02 15:51:47,1018,39,-62,0,0,0,12,54,-3,34.4,36.1,1018.13,0,0
2022-11-02 15:51:47,1018,39,-62,0,0,0,12,54,-3,34.4,36.1,1018.13,0,0
2022-11-02 15:51:47,1018,39,-62,0,0,0,12,54,-3,34.4,36.1,1018.13,0,0
2022-11-02 15:51:47,1018,39,-62,0,0,0,12,54,-3,34.4,36.1,1018.13,0,0
2022-11-02 15:51:47,1016,31,-60,0,0,0,11,56,-7,34.4,36.1,1018.13,0,0
2022-11-02 15:51:47,1016,31,-60,0,0,0,11,56,-7,34.4,36.1,1018.13,0,0
2022-11-02 15:51:47,1016,31,-60,0,0,0,11,56,-7,34.4,36.1,1018.13,0,0
2022-11-02 15:51:47,1016,31,-60,0,0,0,11,56,-7,34.4,36.1,1018.13,0,0
2022-11-02 15:51:47,1016,31,-60,0,0,0,11,56,-7,34.4,36.1,1018.13,0,0
2022-11-02 15:51:47,1016,31,-60,0,0,0,11,56,-7,34.4,36.1,1018.13,0,0
2022-11-02 15:51:47,1016,31,-60,0,0,0,11,56,-7,34.4,36.1,1018.13,0,0
2022-11-02 15:51:47,1016,31,-60,0,0,0,11,56,-7,34.4,36.1,1018.13,0,0
2022-11-02 15:51:47,1016,31,-60,0,0,0,11,56,-7,34.4,36.1,1018.13,0,0
2022-11-02 15:51:47,1016,31,-60,0,0,0,11,56,-7,34.4,36.1,1018.13,0,0
2022-11-02 15:51:47,1016,31,-60,0,0,0,11,56,-7,34.4,36.1,1018.13,0,0
2022-11-02 15:51:47,1015,31,-46,0,0,0,13,56,-5,34.4,36.1,1018.13,0,0
2022-11-02 15:51:47,1015,31,-46,0,0,0,13,56,-5,34.4,36.1,1018.13,0,0
2022-11-02 15:51:47,1015,31,-46,0,0,0,13,56,-5,34.4,36.1,1018.13,0,0
2022-11-02 15:51:47,1015,31,-46,0,0,0,13,56,-5,34.4,36.1,1018.13,0,0
2022-11-02 15:51:47,1015,31,-46,0,0,0,13,56,-5,34.4,36.1,1018.13,0,0
2022-11-02 15:51:47,1015,31,-46,0,0,0,13,56,-5,34.4,36.1,1018.13,0,0
2022-11-02 15:51:47,1015,31,-46,0,0,0,13,56,-5,34.4,36.1,1018.13,0,0
2022-11-02 15:51:47,1015,31,-46,0,0,0,13,56,-5,34.4,36.1,1018.13,0,0
2022-11-02 15:51:47,1015,31,-46,0,0,0,13,56,-5,34.4,36.1,1018.13,0,0
2022-11-02 15:51:47,1015,31,-46,0,0,0,13,56,-5,34.4,36.1,1018.13,0,0
2022-11-02 15:51:47,1015,31,-46,0,0,0,13,56,-5,34.4,36.1,1018.13,0,0
2022-11-02 15:51:47,1016,33,-54,0,0,0,11,56,-7,34.4,36.1,1018.13,0,0
2022-11-02 15:51:47,1016,33,-54,0,0,0,11,56,-7,34.4,36.1,1018.13,0,0
2022-11-02 15:51:47,1016,33,-54,0,0,0,11,56,-7,34.4,36.1,1018.13,0,0
2022-11-02 15:51:47,1016,33,-54,0,0,0,11,56,-7,34.4,36.1,1018.13,0,0
2022-11-02 15:51:47,1016,33,-54,0,0,0,11,56,-7,34.4,36.1,1018.13,0,0
2022-11-02 15:51:47,1016,33,-54,0,0,0,11,56,-7,34.4,36.1,1018.13,0,0
2022-11-02 15:51:47,1016,33,-54,0,0,0,11,56,-7,34.4,36.1,1018.13,0,0
2022-11-02 15:51:47,1016,33,-54,0,0,0,11,56,-7,34.4,36.1,1018.13,0,0
2022-11-02 15:51:47,1016,33,-54,0,0,0,11,56,-7,34.4,36.1,1018.13,0,0
2022-11-02 15:51:47,1016,33,-54,0,0,0,11,56,-7,34.4,36.1,1018.13,0,0
2022-11-02 15:51:47,1016,33,-54,0,0,0,11,56,-7,34.4,36.1,1018.13,0,0
2022-11-02 15:51:47,1024,37,-48,0,0,0,10,59,-9,34.4,36.1,1018.13,0,0
2022-11-02 15:51:47,1024,37,-48,0,0,0,10,59,-9,34.4,36.1,1018.13,0,0
2022-11-02 15:51:47,1024,37,-48,0,0,0,10,59,-9,34.4,36.1,1018.13,0,0
2022-11-02 15:51:47,1024,37,-48,0,0,0,10,59,-9,34.4,36.1,1018.13,0,0
2022-11-02 15:51:47,1024,37,-48,0,0,0,10,59,-9,34.4,36.1,1018.13,0,0
2022-11-02 15:51:47,1024,37,-48,0,0,0,10,59,-9,34.4,36.1,1018.13,0,0
2022-11-02 15:51:47,1024,37,-48,0,0,0,10,59,-9,34.4,36.1,1018.13,0,0
2022-11-02 15:51:47,1024,37,-48,0,0,0,10,59,-9,34.4,36.1,1018.13,0,0
2022-11-02 15:51:47,1024,37,-48,0,0,0,10,59,-9,34.4,36.1,1018.13,0,0
2022-11-02 15:51:47,1024,37,-48,0,0,0,10,59,-9,34.4,36.1,1018.13,0,0
2022-11-02 15:51:47,1024,37,-48,0,0,0,10,59,-9,34.4,36.1,1018.13,0,0
2022-11-02 15:51:47,1022,40,-54,0,1,0,13,52,-1,34.4,36.1,1018.13,0,0
2022-11-02 15:51:47,1022,40,-54,0,1,0,13,52,-1,34.4,36.1,1018.13,0,0
2022-11-02 15:51:47,1022,40,-54,0,1,0,13,52,-1,34.4,36.1,1018.13,0,0
2022-11-02 15:51:47,1022,40,-54,0,1,0,13,52,-1,34.4,36.1,1018.13,0,0
2022-11-02 15:51:47,1022,40,-54,0,1,0,13,52,-1,34.4,36.1,1018.13,0,0
2022-11-02 15:51:47,1022,40,-54,0,1,0,13,52,-1,34.4,36.1,1018.13,0,0
2022-11-02 15:51:47,1022,40,-54,0,1,0,13,52,-1,34.4,36.1,1018.13,0,0
2022-11-02 15:51:47,1022,40,-54,0,1,0,13,52,-1,34.4,36.1,1018.13,0,0
2022-11-02 15:51:47,1022,40,-54,0,1,0,13,52,-1,34.4,36.1,1018.13,0,0
2022-11-02 15:51:47,1022,40,-54,0,1,0,13,52,-1,34.4,36.1,1018.13,0,0
2022-11-02 15:51:47,1022,40,-54,0,1,0,13,52,-1,34.4,36.1,1018.13,0,0
2022-11-02 15:51:48,1015,21,-48,0,1,0,13,57,-4,34.4,36.1,1018.13,0,0
2022-11-02 15:51:48,1015,21,-48,0,1,0,13,57,-4,34.4,36.1,1018.13,0,0
2022-11-02 15:51:48,1015,21,-48,0,1,0,13,57,-4,34.4,36.1,1018.13,0,0
2022-11-02 15:51:48,1015,21,-48,0,1,0,13,57,-4,34.4,36.1,1018.13,0,0
2022-11-02 15:51:48,1015,21,-48,0,1,0,13,57,-4,34.4,36.1,1018.13,0,0
2022-11-02 15:51:48,1015,21,-48,0,1,0,13,57,-4,34.4,36.1,1018.13,0,0
2022-11-02 15:51:48,1015,21,-48,0,1,0,13,57,-4,34.4,36.1,1018.13,0,0
2022-11-02 15:51:48,1015,21,-48,0,1,0,13,57,-4,34.4,36.1,1018.13,0,0
2022-11-02 15:51:48,1015,21,-48,0,1,0,13,57,-4,34.4,36.1,1018.13,0,0
2022-11-02 15:51:48,1015,21,-48,0,1,0,13,57,-4,34.4,36.1,1018.13,0,0
2022-11-02 15:51:48,1015,21,-48,0,1,0,13,57,-4,34.4,36.1,1018.13,0,0
2022-11-02 15:51:48,1018,25,-40,0,0,0,14,57,-4,34.4,36.1,1018.13,0,0
2022-11-02 15:51:48,1018,25,-40,0,0,0,14,57,-4,34.4,36.1,1018.13,0,0
2022-11-02 15:51:48,1018,25,-40,0,0,0,14,57,-4,34.4,36.1,1018.13,0,0
2022-11-02 15:51:48,1018,25,-40,0,0,0,14,57,-4,34.4,36.1,1018.13,0,0
2022-11-02 15:51:48,1018,25,-40,0,0,0,14,57,-4,34.4,36.1,1018.13,0,0
2022-11-02 15:51:48,1018,25,-40,0,0,0,14,57,-4,34.4,36.1,1018.13,0,0
2022-11-02 15:51:48,1018,25,-40,0,0,0,14,57,-4,34.4,36.1,1018.13,0,0
2022-11-02 15:51:48,1018,25,-40,0,0,0,14,57,-4,34.4,36.1,1018.13,0,0
2022-11-02 15:51:48,1018,25,-40,0,0,0,14,57,-4,34.4,36.1,1018.13,0,0
2022-11-02 15:51:48,1018,25,-40,0,0,0,14,57,-4,34.4,36.1,1018.13,0,0
2022-11-02 15:51:48,1018,25,-40,0,0,0,14,57,-4,34.4,36.1,1018.13,0,0
2022-11-02 15:51:48,1026,31,-44,0,0,0,13,56,-3,34.4,36.09,1018.13,0,0
2022-11-02 15:51:48,1026,31,-44,0,0,0,13,56,-3,34.4,36.09,1018.13,0,0
2022-11-02 15:51:48,1026,31,-44,0,0,0,13,56,-3,34.4,36.09,1018.13,0,0
2022-11-02 15:51:48,1026,31,-44,0,0,0,13,56,-3,34.4,36.09,1018.13,0,0
2022-11-02 15:51:48,1026,31,-44,0,0,0,13,56,-3,34.4,36.09,1018.13,0,0
2022-11-02 15:51:48,1026,31,-44,0,0,0,13,56,-3,34.4,36.09,1018.13,0,0
2022-11-02 15:51:48,1026,31,-44,0,0,0,13,56,-3,34.4,36.09,1018.13,0,0
2022-11-02 15:51:48,1026,31,-44,0,0,0,13,56,-3,34.4,36.09,1018.13,0,0
2022-11-02 15:51:48,1026,31,-44,0,0,0,13,56,-3,34.4,36.09,1018.13,0,0
2022-11-02 15:51:48,1026,31,-44,0,0,0,13,56,-3,34.4,36.09,1018.13,0,0
2022-11-02 15:51:48,1026,31,-44,0,0,0,13,56,-3,34.4,36.09,1018.13,0,0
2022-11-02 15:51:48,1018,29,-46,0,0,0,13,56,-3,34.4,36.09,1018.13,0,0
2022-11-02 15:51:48,1018,29,-46,0,0,0,13,56,-3,34.4,36.09,1018.13,0,0
2022-11-02 15:51:48,1018,29,-46,0,0,0,13,56,-3,34.4,36.09,1018.13,0,0
2022-11-02 15:51:48,1018,29,-46,0,0,0,13,56,-3,34.4,36.09,1018.13,0,0
2022-11-02 15:51:48,1018,29,-46,0,0,0,13,56,-3,34.4,36.09,1018.13,0,0
2022-11-02 15:51:48,1018,29,-46,0,0,0,13,56,-3,34.4,36.09,1018.13,0,0
2022-11-02 15:51:48,1018,29,-46,0,0,0,13,56,-3,34.4,36.09,1018.13,0,0
2022-11-02 15:51:48,1018,29,-46,0,0,0,13,56,-3,34.4,36.09,1018.13,0,0
2022-11-02 15:51:48,1018,29,-46,0,0,0,13,56,-3,34.4,36.09,1018.13,0,0
2022-11-02 15:51:48,1018,29,-46,0,0,0,13,56,-3,34.4,36.09,1018.13,0,0
2022-11-02 15:51:48,1018,29,-46,0,0,0,13,56,-3,34.4,36.09,1018.13,0,0
2022-11-02 15:51:48,1015,33,-48,0,0,0,12,56,-3,34.4,36.09,1018.13,0,0
2022-11-02 15:51:48,1015,33,-48,0,0,0,12,56,-3,34.4,36.09,1018.13,0,0
2022-11-02 15:51:48,1015,33,-48,0,0,0,12,56,-3,34.4,36.09,1018.13,0,0
2022-11-02 15:51:48,1015,33,-48,0,0,0,12,56,-3,34.4,36.09,1018.13,0,0
2022-11-02 15:51:48,1015,33,-48,0,0,0,12,56,-3,34.4,36.09,1018.13,0,0
2022-11-02 15:51:48,1015,33,-48,0,0,0,12,56,-3,34.4,36.09,1018.13,0,0
2022-11-02 15:51:48,1015,33,-48,0,0,0,12,56,-3,34.4,36.09,1018.13,0,0
2022-11-02 15:51:48,1015,33,-48,0,0,0,12,56,-3,34.4,36.09,1018.13,0,0
2022-11-02 15:51:48,1015,33,-48,0,0,0,12,56,-3,34.4,36.09,1018.13,0,0
2022-11-02 15:51:48,1015,33,-48,0,0,0,12,56,-3,34.4,36.09,1018.13,0,0
2022-11-02 15:51:48,1015,33,-48,0,0,0,12,56,-3,34.4,36.09,1018.13,0,0
2022-11-02 15:51:48,1016,31,-48,0,0,0,12,55,-6,34.4,36.09,1018.13,0,0
2022-11-02 15:51:48,1016,31,-48,0,0,0,12,55,-6,34.4,36.09,1018.13,0,0
2022-11-02 15:51:48,1016,31,-48,0,0,0,12,55,-6,34.4,36.09,1018.13,0,0
2022-11-02 15:51:48,1016,31,-48,0,0,0,12,55,-6,34.4,36.09,1018.13,0,0
2022-11-02 15:51:48,1016,31,-48,0,0,0,12,55,-6,34.4,36.09,1018.13,0,0
2022-11-02 15:51:48,1016,31,-48,0,0,0,12,55,-6,34.4,36.09,1018.13,0,0
2022-11-02 15:51:48,1016,31,-48,0,0,0,12,55,-6,34.4,36.09,1018.13,0,0
2022-11-02 15:51:48,1016,31,-48,0,0,0,12,55,-6,34.4,36.09,1018.13,0,0
2022-11-02 15:51:48,1016,31,-48,0,0,0,12,55,-6,34.4,36.09,1018.13,0,0
2022-11-02 15:51:48,1016,31,-48,0,0,0,12,55,-6,34.4,36.09,1018.13,0,0
2022-11-02 15:51:48,1016,31,-48,0,0,0,12,55,-6,34.4,36.09,1018.13,0,0
2022-11-02 15:51:48,1024,33,-42,0,0,0,14,55,-2,34.4,36.09,1018.13,0,0
2022-11-02 15:51:48,1024,33,-42,0,0,0,14,55,-2,34.4,36.09,1018.13,0,0
2022-11-02 15:51:48,1024,33,-42,0,0,0,14,55,-2,34.4,36.09,1018.13,0,0
2022-11-02 15:51:48,1024,33,-42,0,0,0,14,55,-2,34.4,36.09,1018.13,0,0
2022-11-02 15:51:48,1024,33,-42,0,0,0,14,55,-2,34.4,36.09,1018.13,0,0
2022-11-02 15:51:48,1024,33,-42,0,0,0,14,55,-2,34.4,36.09,1018.13,0,0
2022-11-02 15:51:48,1024,33,-42,0,0,0,14,55,-2,34.4,36.09,1018.13,0,0
2022-11-02 15:51:48,1024,33,-42,0,0,0,14,55,-2,34.4,36.09,1018.13,0,0
2022-11-02 15:51:48,1024,33,-42,0,0,0,14,55,-2,34.4,36.09,1018.13,0,0
2022-11-02 15:51:48,1024,33,-42,0,0,0,14,55,-2,34.4,36.09,1018.13,0,0
2022-11-02 15:51:48,1024,33,-42,0,0,0,14,55,-2,34.4,36.09,1018.13,0,0
2022-11-02 15:51:48,1026,35,-42,0,0,0,14,55,0,34.4,36.09,1018.13,0,0
2022-11-02 15:51:48,1026,35,-42,0,0,0,14,55,0,34.4,36.09,1018.13,0,0
2022-11-02 15:51:48,1026,35,-42,0,0,0,14,55,0,34.4,36.09,1018.13,0,0
2022-11-02 15:51:48,1026,35,-42,0,0,0,14,55,0,34.4,36.09,1018.13,0,0
2022-11-02 15:51:48,1026,35,-42,0,0,0,14,55,0,34.4,36.09,1018.13,0,0
2022-11-02 15:51:48,1026,35,-42,0,0,0,14,55,0,34.4,36.09,1018.13,0,0
2022-11-02 15:51:48,1026,35,-42,0,0,0,14,55,0,34.4,36.09,1018.13,0,0
2022-11-02 15:51:48,1026,35,-42,0,0,0,14,55,0,34.4,36.09,1018.13,0,0
2022-11-02 15:51:48,1026,35,-42,0,0,0,14,55,0,34.4,36.09,1018.13,0,0
2022-11-02 15:51:48,1026,35,-42,0,0,0,14,55,0,34.4,36.09,1018.13,0,0
2022-11-02 15:51:48,1026,35,-42,0,0,0,14,55,0,34.4,36.09,1018.13,0,0
2022-11-02 15:51:48,1018,33,-40,1,0,0,11,54,-5,34.4,36.09,1018.13,0,0
2022-11-02 15:51:48,1018,33,-40,1,0,0,11,54,-5,34.4,36.09,1018.13,0,0
2022-11-02 15:51:48,1018,33,-40,1,0,0,11,54,-5,34.4,36.09,1018.13,0,0
2022-11-02 15:51:48,1018,33,-40,1,0,0,11,54,-5,34.4,36.09,1018.13,0,0
2022-11-02 15:51:48,1018,33,-40,1,0,0,11,54,-5,34.4,36.09,1018.13,0,0
2022-11-02 15:51:48,1018,33,-40,1,0,0,11,54,-5,34.4,36.09,1018.13,0,0
2022-11-02 15:51:48,1018,33,-40,1,0,0,11,54,-5,34.4,36.09,1018.13,0,0
2022-11-02 15:51:48,1018,33,-40,1,0,0,11,54,-5,34.4,36.09,1018.13,0,0
2022-11-02 15:51:48,1018,33,-40,1,0,0,11,54,-5,34.4,36.09,1018.13,0,0
2022-11-02 15:51:48,1018,33,-40,1,0,0,11,54,-5,34.4,36.09,1018.13,0,0
2022-11-02 15:51:48,1018,33,-40,1,0,0,11,54,-5,34.4,36.09,1018.13,0,0
2022-11-02 15:51:48,1016,29,-40,1,0,0,13,55,-5,34.4,36.09,1018.13,0,0
2022-11-02 15:51:48,1016,29,-40,1,0,0,13,55,-5,34.4,36.09,1018.13,0,0
2022-11-02 15:51:48,1016,29,-40,1,0,0,13,55,-5,34.4,36.09,1018.13,0,0
2022-11-02 15:51:48,1016,29,-40,1,0,0,13,55,-5,34.4,36.09,1018.13,0,0
2022-11-02 15:51:48,1016,29,-40,1,0,0,13,55,-5,34.4,36.09,1018.13,0,0
2022-11-02 15:51:48,1016,29,-40,1,0,0,13,55,-5,34.4,36.09,1018.13,0,0
2022-11-02 15:51:48,1016,29,-40,1,0,0,13,55,-5,34.4,36.09,1018.13,0,0
2022-11-02 15:51:48,1016,29,-40,1,0,0,13,55,-5,34.4,36.09,1018.13,0,0
2022-11-02 15:51:48,1016,29,-40,1,0,0,13,55,-5,34.4,36.09,1018.13,0,0
2022-11-02 15:51:48,1016,29,-40,1,0,0,13,55,-5,34.4,36.09,1018.13,0,0
2022-11-02 15:51:48,1016,29,-40,1,0,0,13,55,-5,34.4,36.09,1018.13,0,0
2022-11-02 15:51:49,1022,29,-42,0,0,0,12,56,-5,34.4,36.09,1018.13,0,0
2022-11-02 15:51:49,1022,29,-42,0,0,0,12,56,-5,34.4,36.09,1018.13,0,0
2022-11-02 15:51:49,1022,29,-42,0,0,0,12,56,-5,34.4,36.09,1018.13,0,0
2022-11-02 15:51:49,1022,29,-42,0,0,0,12,56,-5,34.4,36.09,1018.13,0,0
2022-11-02 15:51:49,1022,29,-42,0,0,0,12,56,-5,34.4,36.09,1018.13,0,0
2022-11-02 15:51:49,1022,29,-42,0,0,0,12,56,-5,34.4,36.09,1018.13,0,0
2022-11-02 15:51:49,1022,29,-42,0,0,0,12,56,-5,34.4,36.09,1018.13,0,0
2022-11-02 15:51:49,1022,29,-42,0,0,0,12,56,-5,34.4,36.09,1018.13,0,0
2022-11-02 15:51:49,1022,29,-42,0,0,0,12,56,-5,34.4,36.09,1018.13,0,0
2022-11-02 15:51:49,1022,29,-42,0,0,0,12,56,-5,34.4,36.09,1018.13,0,0
2022-11-02 15:51:49,1022,29,-42,0,0,0,12,56,-5,34.4,36.09,1018.13,0,0
2022-11-02 15:51:49,1024,25,-52,0,0,0,12,52,-4,34.4,36.09,1018.13,0,0
2022-11-02 15:51:49,1024,25,-52,0,0,0,12,52,-4,34.4,36.09,1018.13,0,0
2022-11-02 15:51:49,1024,25,-52,0,0,0,12,52,-4,34.4,36.09,1018.13,0,0
2022-11-02 15:51:49,1024,25,-52,0,0,0,12,52,-4,34.4,36.09,1018.13,0,0
2022-11-02 15:51:49,1024,25,-52,0,0,0,12,52,-4,34.4,36.09,1018.13,0,0
2022-11-02 15:51:49,1024,25,-52,0,0,0,12,52,-4,34.4,36.09,1018.13,0,0
2022-11-02 15:51:49,1024,25,-52,0,0,0,12,52,-4,34.4,36.09,1018.13,0,0
2022-11-02 15:51:49,1024,25,-52,0,0,0,12,52,-4,34.4,36.09,1018.13,0,0
2022-11-02 15:51:49,1024,25,-52,0,0,0,12,52,-4,34.4,36.09,1018.13,0,0
2022-11-02 15:51:49,1024,25,-52,0,0,0,12,52,-4,34.4,36.09,1018.13,0,0
2022-11-02 15:51:49,1024,25,-52,0,0,0,12,52,-4,34.4,36.09,1018.13,0,0
2022-11-02 15:51:49,1018,40,-46,0,0,0,11,55,-1,34.4,36.1,1018.15,0,0
2022-11-02 15:51:49,1018,40,-46,0,0,0,11,55,-1,34.4,36.1,1018.15,0,0
2022-11-02 15:51:49,1018,40,-46,0,0,0,11,55,-1,34.4,36.1,1018.15,0,0
2022-11-02 15:51:49,1018,40,-46,0,0,0,11,55,-1,34.4,36.1,1018.15,0,0
2022-11-02 15:51:49,1018,40,-46,0,0,0,11,55,-1,34.4,36.1,1018.15,0,0
2022-11-02 15:51:49,1018,40,-46,0,0,0,11,55,-1,34.4,36.1,1018.15,0,0
2022-11-02 15:51:49,1018,40,-46,0,0,0,11,55,-1,34.4,36.1,1018.15,0,0
2022-11-02 15:51:49,1018,40,-46,0,0,0,11,55,-1,34.4,36.1,1018.15,0,0
2022-11-02 15:51:49,1018,40,-46,0,0,0,11,55,-1,34.4,36.1,1018.15,0,0
2022-11-02 15:51:49,1018,40,-46,0,0,0,11,55,-1,34.4,36.1,1018.15,0,0
2022-11-02 15:51:49,1018,40,-46,0,0,0,11,55,-1,34.4,36.1,1018.15,0,0
2022-11-02 15:51:49,1024,31,-44,1,0,0,10,56,-3,34.4,36.1,1018.15,0,0
2022-11-02 15:51:49,1024,31,-44,1,0,0,10,56,-3,34.4,36.1,1018.15,0,0
2022-11-02 15:51:49,1024,31,-44,1,0,0,10,56,-3,34.4,36.1,1018.15,0,0
2022-11-02 15:51:49,1024,31,-44,1,0,0,10,56,-3,34.4,36.1,1018.15,0,0
2022-11-02 15:51:49,1024,31,-44,1,0,0,10,56,-3,34.4,36.1,1018.15,0,0
2022-11-02 15:51:49,1024,31,-44,1,0,0,10,56,-3,34.4,36.1,1018.15,0,0
2022-11-02 15:51:49,1024,31,-44,1,0,0,10,56,-3,34.4,36.1,1018.15,0,0
2022-11-02 15:51:49,1024,31,-44,1,0,0,10,56,-3,34.4,36.1,1018.15,0,0
2022-11-02 15:51:49,1024,31,-44,1,0,0,10,56,-3,34.4,36.1,1018.15,0,0
2022-11-02 15:51:49,1024,31,-44,1,0,0,10,56,-3,34.4,36.1,1018.15,0,0
2022-11-02 15:51:49,1024,31,-44,1,0,0,10,56,-3,34.4,36.1,1018.15,0,0
2022-11-02 15:51:49,1026,27,-35,0,0,0,11,54,-5,34.4,36.1,1018.15,0,0
2022-11-02 15:51:49,1026,27,-35,0,0,0,11,54,-5,34.4,36.1,1018.15,0,0
2022-11-02 15:51:49,1026,27,-35,0,0,0,11,54,-5,34.4,36.1,1018.15,0,0
2022-11-02 15:51:49,1026,27,-35,0,0,0,11,54,-5,34.4,36.1,1018.15,0,0
2022-11-02 15:51:49,1026,27,-35,0,0,0,11,54,-5,34.4,36.1,1018.15,0,0
2022-11-02 15:51:49,1026,27,-35,0,0,0,11,54,-5,34.4,36.1,1018.15,0,0
2022-11-02 15:51:49,1026,27,-35,0,0,0,11,54,-5,34.4,36.1,1018.15,0,0
2022-11-02 15:51:49,1026,27,-35,0,0,0,11,54,-5,34.4,36.1,1018.15,0,0
2022-11-02 15:51:49,1026,27,-35,0,0,0,11,54,-5,34.4,36.1,1018.15,0,0
2022-11-02 15:51:49,1026,27,-35,0,0,0,11,54,-5,34.4,36.1,1018.15,0,0
2022-11-02 15:51:49,1026,27,-35,0,0,0,11,54,-5,34.4,36.1,1018.15,0,0
2022-11-02 15:51:49,1020,37,-52,0,0,0,11,51,-3,34.4,36.1,1018.15,0,0
2022-11-02 15:51:49,1020,37,-52,0,0,0,11,51,-3,34.4,36.1,1018.15,0,0
2022-11-02 15:51:49,1020,37,-52,0,0,0,11,51,-3,34.4,36.1,1018.15,0,0
2022-11-02 15:51:49,1020,37,-52,0,0,0,11,51,-3,34.4,36.1,1018.15,0,0
2022-11-02 15:51:49,1020,37,-52,0,0,0,11,51,-3,34.4,36.1,1018.15,0,0
2022-11-02 15:51:49,1020,37,-52,0,0,0,11,51,-3,34.4,36.1,1018.15,0,0
2022-11-02 15:51:49,1020,37,-52,0,0,0,11,51,-3,34.4,36.1,1018.15,0,0
2022-11-02 15:51:49,1020,37,-52,0,0,0,11,51,-3,34.4,36.1,1018.15,0,0
2022-11-02 15:51:49,1020,37,-52,0,0,0,11,51,-3,34.4,36.1,1018.15,0,0
2022-11-02 15:51:49,1020,37,-52,0,0,0,11,51,-3,34.4,36.1,1018.15,0,0
2022-11-02 15:51:49,1020,37,-52,0,0,0,11,51,-3,34.4,36.1,1018.15,0,0
2022-11-02 15:51:49,1026,15,-48,1,0,0,12,55,-3,34.4,36.1,1018.15,0,0
2022-11-02 15:51:49,1026,15,-48,1,0,0,12,55,-3,34.4,36.1,1018.15,0,0
2022-11-02 15:51:49,1026,15,-48,1,0,0,12,55,-3,34.4,36.1,1018.15,0,0
2022-11-02 15:51:49,1026,15,-48,1,0,0,12,55,-3,34.4,36.1,1018.15,0,0
2022-11-02 15:51:49,1026,15,-48,1,0,0,12,55,-3,34.4,36.1,1018.15,0,0
2022-11-02 15:51:49,1026,15,-48,1,0,0,12,55,-3,34.4,36.1,1018.15,0,0
2022-11-02 15:51:49,1026,15,-48,1,0,0,12,55,-3,34.4,36.1,1018.15,0,0
2022-11-02 15:51:49,1026,15,-48,1,0,0,12,55,-3,34.4,36.1,1018.15,0,0
2022-11-02 15:51:49,1026,15,-48,1,0,0,12,55,-3,34.4,36.1,1018.15,0,0
2022-11-02 15:51:49,1026,15,-48,1,0,0,12,55,-3,34.4,36.1,1018.15,0,0
2022-11-02 15:51:49,1026,15,-48,1,0,0,12,55,-3,34.4,36.1,1018.15,0,0
2022-11-02 15:51:49,1022,27,-44,-2,0,0,12,54,-1,34.4,36.1,1018.15,0,0
2022-11-02 15:51:49,1022,27,-44,-2,0,0,12,54,-1,34.4,36.1,1018.15,0,0
2022-11-02 15:51:49,1022,27,-44,-2,0,0,12,54,-1,34.4,36.1,1018.15,0,0
2022-11-02 15:51:49,1022,27,-44,-2,0,0,12,54,-1,34.4,36.1,1018.15,0,0
2022-11-02 15:51:49,1022,27,-44,-2,0,0,12,54,-1,34.4,36.1,1018.15,0,0
2022-11-02 15:51:49,1022,27,-44,-2,0,0,12,54,-1,34.4,36.1,1018.15,0,0
2022-11-02 15:51:49,1022,27,-44,-2,0,0,12,54,-1,34.4,36.1,1018.15,0,0
2022-11-02 15:51:49,1022,27,-44,-2,0,0,12,54,-1,34.4,36.1,1018.15,0,0
2022-11-02 15:51:49,1022,27,-44,-2,0,0,12,54,-1,34.4,36.1,1018.15,0,0
2022-11-02 15:51:49,1022,27,-44,-2,0,0,12,54,-1,34.4,36.1,1018.15,0,0
2022-11-02 15:51:49,1022,27,-44,-2,0,0,12,54,-1,34.4,36.1,1018.15,0,0
2022-11-02 15:51:49,1022,29,-52,-2,0,0,12,55,-5,34.4,36.1,1018.15,0,0
2022-11-02 15:51:49,1022,29,-52,-2,0,0,12,55,-5,34.4,36.1,1018.15,0,0
2022-11-02 15:51:49,1022,29,-52,-2,0,0,12,55,-5,34.4,36.1,1018.15,0,0
2022-11-02 15:51:49,1022,29,-52,-2,0,0,12,55,-5,34.4,36.1,1018.15,0,0
2022-11-02 15:51:49,1022,29,-52,-2,0,0,12,55,-5,34.4,36.1,1018.15,0,0
2022-11-02 15:51:49,1022,29,-52,-2,0,0,12,55,-5,34.4,36.1,1018.15,0,0
2022-11-02 15:51:49,1022,29,-52,-2,0,0,12,55,-5,34.4,36.1,1018.15,0,0
2022-11-02 15:51:49,1022,29,-52,-2,0,0,12,55,-5,34.4,36.1,1018.15,0,0
2022-11-02 15:51:49,1022,29,-52,-2,0,0,12,55,-5,34.4,36.1,1018.15,0,0
2022-11-02 15:51:49,1022,29,-52,-2,0,0,12,55,-5,34.4,36.1,1018.15,0,0
2022-11-02 15:51:49,1022,29,-52,-2,0,0,12,55,-5,34.4,36.1,1018.15,0,0
2022-11-02 15:51:49,1016,27,-42,-1,0,0,11,55,0,34.4,36.1,1018.15,0,0
2022-11-02 15:51:49,1016,27,-42,-1,0,0,11,55,0,34.4,36.1,1018.15,0,0
2022-11-02 15:51:49,1016,27,-42,-1,0,0,11,55,0,34.4,36.1,1018.15,0,0
2022-11-02 15:51:49,1016,27,-42,-1,0,0,11,55,0,34.4,36.1,1018.15,0,0
2022-11-02 15:51:49,1016,27,-42,-1,0,0,11,55,0,34.4,36.1,1018.15,0,0
2022-11-02 15:51:49,1016,27,-42,-1,0,0,11,55,0,34.4,36.1,1018.15,0,0
2022-11-02 15:51:49,1016,27,-42,-1,0,0,11,55,0,34.4,36.1,1018.15,0,0
2022-11-02 15:51:49,1016,27,-42,-1,0,0,11,55,0,34.4,36.1,1018.15,0,0
2022-11-02 15:51:49,1016,27,-42,-1,0,0,11,55,0,34.4,36.1,1018.15,0,0
2022-11-02 15:51:49,1016,27,-42,-1,0,0,11,55,0,34.4,36.1,1018.15,0,0
2022-11-02 15:51:49,1016,27,-42,-1,0,0,11,55,0,34.4,36.1,1018.15,0,0
2022-11-02 15:51:50,1016,27,-52,-1,0,0,12,56,-5,34.4,36.1,1018.15,0,0
2022-11-02 15:51:50,1016,27,-52,-1,0,0,12,56,-5,34.4,36.1,1018.15,0,0
2022-11-02 15:51:50,1016,27,-52,-1,0,0,12,56,-5,34.4,36.1,1018.15,0,0
2022-11-02 15:51:50,1016,27,-52,-1,0,0,12,56,-5,34.4,36.1,1018.15,0,0
2022-11-02 15:51:50,1016,27,-52,-1,0,0,12,56,-5,34.4,36.1,1018.15,0,0
2022-11-02 15:51:50,1016,27,-52,-1,0,0,12,56,-5,34.4,36.1,1018.15,0,0
2022-11-02 15:51:50,1016,27,-52,-1,0,0,12,56,-5,34.4,36.1,1018.15,0,0
2022-11-02 15:51:50,1016,27,-52,-1,0,0,12,56,-5,34.4,36.1,1018.15,0,0
2022-11-02 15:51:50,1016,27,-52,-1,0,0,12,56,-5,34.4,36.1,1018.15,0,0
2022-11-02 15:51:50,1016,27,-52,-1,0,0,12,56,-5,34.4,36.1,1018.15,0,0
2022-11-02 15:51:50,1016,27,-52,-1,0,0,12,56,-5,34.4,36.1,1018.15,0,0
2022-11-02 15:51:50,1018,25,-54,-1,0,0,12,55,0,34.4,36.1,1018.15,0,0
2022-11-02 15:51:50,1018,25,-54,-1,0,0,12,55,0,34.4,36.1,1018.15,0,0
2022-11-02 15:51:50,1018,25,-54,-1,0,0,12,55,0,34.4,36.1,1018.15,0,0
2022-11-02 15:51:50,1018,25,-54,-1,0,0,12,55,0,34.4,36.1,1018.15,0,0
2022-11-02 15:51:50,1018,25,-54,-1,0,0,12,55,0,34.4,36.1,1018.15,0,0
2022-11-02 15:51:50,1018,25,-54,-1,0,0,12,55,0,34.4,36.1,1018.15,0,0
2022-11-02 15:51:50,1018,25,-54,-1,0,0,12,55,0,34.4,36.1,1018.15,0,0
2022-11-02 15:51:50,1018,25,-54,-1,0,0,12,55,0,34.4,36.1,1018.15,0,0
2022-11-02 15:51:50,1018,25,-54,-1,0,0,12,55,0,34.4,36.1,1018.15,0,0
2022-11-02 15:51:50,1018,25,-54,-1,0,0,12,55,0,34.4,36.1,1018.15,0,0
2022-11-02 15:51:50,1018,25,-54,-1,0,0,12,55,0,34.4,36.1,1018.15,0,0
2022-11-02 15:51:50,1016,27,-60,0,0,0,11,53,0,34.4,36.09,1018.15,0,0
2022-11-02 15:51:50,1016,27,-60,0,0,0,11,53,0,34.4,36.09,1018.15,0,0
2022-11-02 15:51:50,1016,27,-60,0,0,0,11,53,0,34.4,36.09,1018.15,0,0
2022-11-02 15:51:50,1016,27,-60,0,0,0,11,53,0,34.4,36.09,1018.15,0,0
2022-11-02 15:51:50,1016,27,-60,0,0,0,11,53,0,34.4,36.09,1018.15,0,0
2022-11-02 15:51:50,1016,27,-60,0,0,0,11,53,0,34.4,36.09,1018.15,0,0
2022-11-02 15:51:50,1016,27,-60,0,0,0,11,53,0,34.4,36.09,1018.15,0,0
2022-11-02 15:51:50,1016,27,-60,0,0,0,11,53,0,34.4,36.09,1018.15,0,0
2022-11-02 15:51:50,1016,27,-60,0,0,0,11,53,0,34.4,36.09,1018.15,0,0
2022-11-02 15:51:50,1016,27,-60,0,0,0,11,53,0,34.4,36.09,1018.15,0,0
2022-11-02 15:51:50,1016,27,-60,0,0,0,11,53,0,34.4,36.09,1018.15,0,0
2022-11-02 15:51:50,1018,27,-44,0,0,0,11,54,-4,34.4,36.09,1018.15,0,0
2022-11-02 15:51:50,1018,27,-44,0,0,0,11,54,-4,34.4,36.09,1018.15,0,0
2022-11-02 15:51:50,1018,27,-44,0,0,0,11,54,-4,34.4,36.09,1018.15,0,0
2022-11-02 15:51:50,1018,27,-44,0,0,0,11,54,-4,34.4,36.09,1018.15,0,0
2022-11-02 15:51:50,1018,27,-44,0,0,0,11,54,-4,34.4,36.09,1018.15,0,0
2022-11-02 15:51:50,1018,27,-44,0,0,0,11,54,-4,34.4,36.09,1018.15,0,0
2022-11-02 15:51:50,1018,27,-44,0,0,0,11,54,-4,34.4,36.09,1018.15,0,0
2022-11-02 15:51:50,1018,27,-44,0,0,0,11,54,-4,34.4,36.09,1018.15,0,0
2022-11-02 15:51:50,1018,27,-44,0,0,0,11,54,-4,34.4,36.09,1018.15,0,0
2022-11-02 15:51:50,1018,27,-44,0,0,0,11,54,-4,34.4,36.09,1018.15,0,0
2022-11-02 15:51:50,1018,27,-44,0,0,0,11,54,-4,34.4,36.09,1018.15,0,0
2022-11-02 15:51:50,1022,33,-46,0,0,0,13,55,-5,34.4,36.09,1018.15,0,0
2022-11-02 15:51:50,1022,33,-46,0,0,0,13,55,-5,34.4,36.09,1018.15,0,0
2022-11-02 15:51:50,1022,33,-46,0,0,0,13,55,-5,34.4,36.09,1018.15,0,0
2022-11-02 15:51:50,1022,33,-46,0,0,0,13,55,-5,34.4,36.09,1018.15,0,0
2022-11-02 15:51:50,1022,33,-46,0,0,0,13,55,-5,34.4,36.09,1018.15,0,0
2022-11-02 15:51:50,1022,33,-46,0,0,0,13,55,-5,34.4,36.09,1018.15,0,0
2022-11-02 15:51:50,1022,33,-46,0,0,0,13,55,-5,34.4,36.09,1018.15,0,0
2022-11-02 15:51:50,1022,33,-46,0,0,0,13,55,-5,34.4,36.09,1018.15,0,0
2022-11-02 15:51:50,1022,33,-46,0,0,0,13,55,-5,34.4,36.09,1018.15,0,0
2022-11-02 15:51:50,1022,33,-46,0,0,0,13,55,-5,34.4,36.09,1018.15,0,0
2022-11-02 15:51:50,1022,33,-46,0,0,0,13,55,-5,34.4,36.09,1018.15,0,0
2022-11-02 15:51:50,1018,21,-46,0,0,0,12,56,-3,34.4,36.09,1018.15,0,0
2022-11-02 15:51:50,1018,21,-46,0,0,0,12,56,-3,34.4,36.09,1018.15,0,0
2022-11-02 15:51:50,1018,21,-46,0,0,0,12,56,-3,34.4,36.09,1018.15,0,0
2022-11-02 15:51:50,1018,21,-46,0,0,0,12,56,-3,34.4,36.09,1018.15,0,0
2022-11-02 15:51:50,1018,21,-46,0,0,0,12,56,-3,34.4,36.09,1018.15,0,0
2022-11-02 15:51:50,1018,21,-46,0,0,0,12,56,-3,34.4,36.09,1018.15,0,0
2022-11-02 15:51:50,1018,21,-46,0,0,0,12,56,-3,34.4,36.09,1018.15,0,0
2022-11-02 15:51:50,1018,21,-46,0,0,0,12,56,-3,34.4,36.09,1018.15,0,0
2022-11-02 15:51:50,1018,21,-46,0,0,0,12,56,-3,34.4,36.09,1018.15,0,0
2022-11-02 15:51:50,1018,21,-46,0,0,0,12,56,-3,34.4,36.09,1018.15,0,0
2022-11-02 15:51:50,1018,21,-46,0,0,0,12,56,-3,34.4,36.09,1018.15,0,0
2022-11-02 15:51:50,1007,23,-46,0,0,0,13,55,-5,34.4,36.09,1018.15,0,0
2022-11-02 15:51:50,1007,23,-46,0,0,0,13,55,-5,34.4,36.09,1018.15,0,0
2022-11-02 15:51:50,1007,23,-46,0,0,0,13,55,-5,34.4,36.09,1018.15,0,0
2022-11-02 15:51:50,1007,23,-46,0,0,0,13,55,-5,34.4,36.09,1018.15,0,0
2022-11-02 15:51:50,1007,23,-46,0,0,0,13,55,-5,34.4,36.09,1018.15,0,0
2022-11-02 15:51:50,1007,23,-46,0,0,0,13,55,-5,34.4,36.09,1018.15,0,0
2022-11-02 15:51:50,1007,23,-46,0,0,0,13,55,-5,34.4,36.09,1018.15,0,0
2022-11-02 15:51:50,1007,23,-46,0,0,0,13,55,-5,34.4,36.09,1018.15,0,0
2022-11-02 15:51:50,1007,23,-46,0,0,0,13,55,-5,34.4,36.09,1018.15,0,0
2022-11-02 15:51:50,1007,23,-46,0,0,0,13,55,-5,34.4,36.09,1018.15,0,0
2022-11-02 15:51:50,1007,23,-46,0,0,0,13,55,-5,34.4,36.09,1018.15,0,0
2022-11-02 15:51:50,1016,33,-54,0,0,0,11,57,-4,34.4,36.09,1018.15,0,0
2022-11-02 15:51:50,1016,33,-54,0,0,0,11,57,-4,34.4,36.09,1018.15,0,0
2022-11-02 15:51:50,1016,33,-54,0,0,0,11,57,-4,34.4,36.09,1018.15,0,0
2022-11-02 15:51:50,1016,33,-54,0,0,0,11,57,-4,34.4,36.09,1018.15,0,0
2022-11-02 15:51:50,1016,33,-54,0,0,0,11,57,-4,34.4,36.09,1018.15,0,0
2022-11-02 15:51:50,1016,33,-54,0,0,0,11,57,-4,34.4,36.09,1018.15,0,0
2022-11-02 15:51:50,1016,33,-54,0,0,0,11,57,-4,34.4,36.09,1018.15,0,0
2022-11-02 15:51:50,1016,33,-54,0,0,0,11,57,-4,34.4,36.09,1018.15,0,0
2022-11-02 15:51:50,1016,33,-54,0,0,0,11,57,-4,34.4,36.09,1018.15,0,0
2022-11-02 15:51:50,1016,33,-54,0,0,0,11,57,-4,34.4,36.09,1018.15,0,0
2022-11-02 15:51:50,1016,33,-54,0,0,0,11,57,-4,34.4,36.09,1018.15,0,0
2022-11-02 15:51:50,1022,25,-60,0,0,0,11,54,-5,34.4,36.09,1018.15,0,0
2022-11-02 15:51:50,1022,25,-60,0,0,0,11,54,-5,34.4,36.09,1018.15,0,0
2022-11-02 15:51:50,1022,25,-60,0,0,0,11,54,-5,34.4,36.09,1018.15,0,0
2022-11-02 15:51:50,1022,25,-60,0,0,0,11,54,-5,34.4,36.09,1018.15,0,0
2022-11-02 15:51:50,1022,25,-60,0,0,0,11,54,-5,34.4,36.09,1018.15,0,0
2022-11-02 15:51:50,1022,25,-60,0,0,0,11,54,-5,34.4,36.09,1018.15,0,0
2022-11-02 15:51:50,1022,25,-60,0,0,0,11,54,-5,34.4,36.09,1018.15,0,0
2022-11-02 15:51:50,1022,25,-60,0,0,0,11,54,-5,34.4,36.09,1018.15,0,0
2022-11-02 15:51:50,1022,25,-60,0,0,0,11,54,-5,34.4,36.09,1018.15,0,0
2022-11-02 15:51:50,1022,25,-60,0,0,0,11,54,-5,34.4,36.09,1018.15,0,0
2022-11-02 15:51:50,1022,25,-60,0,0,0,11,54,-5,34.4,36.09,1018.15,0,0
2022-11-02 15:51:50,1018,27,-56,0,0,0,12,57,-8,34.4,36.09,1018.15,0,0
2022-11-02 15:51:50,1018,27,-56,0,0,0,12,57,-8,34.4,36.09,1018.15,0,0
2022-11-02 15:51:50,1018,27,-56,0,0,0,12,57,-8,34.4,36.09,1018.15,0,0
2022-11-02 15:51:50,1018,27,-56,0,0,0,12,57,-8,34.4,36.09,1018.15,0,0
2022-11-02 15:51:50,1018,27,-56,0,0,0,12,57,-8,34.4,36.09,1018.15,0,0
2022-11-02 15:51:50,1018,27,-56,0,0,0,12,57,-8,34.4,36.09,1018.15,0,0
2022-11-02 15:51:50,1018,27,-56,0,0,0,12,57,-8,34.4,36.09,1018.15,0,0
2022-11-02 15:51:50,1018,27,-56,0,0,0,12,57,-8,34.4,36.09,1018.15,0,0
2022-11-02 15:51:50,1018,27,-56,0,0,0,12,57,-8,34.4,36.09,1018.15,0,0
2022-11-02 15:51:50,1018,27,-56,0,0,0,12,57,-8,34.4,36.09,1018.15,0,0
2022-11-02 15:51:50,1018,27,-56,0,0,0,12,57,-8,34.4,36.09,1018.15,0,0
2022-11-02 15:51:51,1015,33,-46,0,0,0,11,57,-2,34.4,36.09,1018.15,0,0
2022-11-02 15:51:51,1015,33,-46,0,0,0,11,57,-2,34.4,36.09,1018.15,0,0
2022-11-02 15:51:51,1015,33,-46,0,0,0,11,57,-2,34.4,36.09,1018.15,0,0
2022-11-02 15:51:51,1015,33,-46,0,0,0,11,57,-2,34.4,36.09,1018.15,0,0
2022-11-02 15:51:51,1015,33,-46,0,0,0,11,57,-2,34.4,36.09,1018.15,0,0
2022-11-02 15:51:51,1015,33,-46,0,0,0,11,57,-2,34.4,36.09,1018.15,0,0
2022-11-02 15:51:51,1015,33,-46,0,0,0,11,57,-2,34.4,36.09,1018.15,0,0
2022-11-02 15:51:51,1015,33,-46,0,0,0,11,57,-2,34.4,36.09,1018.15,0,0
2022-11-02 15:51:51,1015,33,-46,0,0,0,11,57,-2,34.4,36.09,1018.15,0,0
2022-11-02 15:51:51,1015,33,-46,0,0,0,11,57,-2,34.4,36.09,1018.15,0,0
2022-11-02 15:51:51,1015,33,-46,0,0,0,11,57,-2,34.4,36.09,1018.15,0,0
2022-11-02 15:51:51,1024,33,-54,0,0,0,11,54,-1,34.4,36.09,1018.15,0,0
2022-11-02 15:51:51,1024,33,-54,0,0,0,11,54,-1,34.4,36.09,1018.15,0,0
2022-11-02 15:51:51,1024,33,-54,0,0,0,11,54,-1,34.4,36.09,1018.15,0,0
2022-11-02 15:51:51,1024,33,-54,0,0,0,11,54,-1,34.4,36.09,1018.15,0,0
2022-11-02 15:51:51,1024,33,-54,0,0,0,11,54,-1,34.4,36.09,1018.15,0,0
2022-11-02 15:51:51,1024,33,-54,0,0,0,11,54,-1,34.4,36.09,1018.15,0,0
2022-11-02 15:51:51,1024,33,-54,0,0,0,11,54,-1,34.4,36.09,1018.15,0,0
2022-11-02 15:51:51,1024,33,-54,0,0,0,11,54,-1,34.4,36.09,1018.15,0,0
2022-11-02 15:51:51,1024,33,-54,0,0,0,11,54,-1,34.4,36.09,1018.15,0,0
2022-11-02 15:51:51,1024,33,-54,0,0,0,11,54,-1,34.4,36.09,1018.15,0,0
2022-11-02 15:51:51,1024,33,-54,0,0,0,11,54,-1,34.4,36.09,1018.15,0,0
2022-11-02 15:51:51,1016,31,-54,0,0,0,12,56,2,34.4,36.09,1018.15,0,0
2022-11-02 15:51:51,1016,31,-54,0,0,0,12,56,2,34.4,36.09,1018.15,0,0
2022-11-02 15:51:51,1016,31,-54,0,0,0,12,56,2,34.4,36.09,1018.15,0,0
2022-11-02 15:51:51,1016,31,-54,0,0,0,12,56,2,34.4,36.09,1018.15,0,0
2022-11-02 15:51:51,1016,31,-54,0,0,0,12,56,2,34.4,36.09,1018.15,0,0
2022-11-02 15:51:51,1016,31,-54,0,0,0,12,56,2,34.4,36.09,1018.15,0,0
2022-11-02 15:51:51,1016,31,-54,0,0,0,12,56,2,34.4,36.09,1018.15,0,0
2022-11-02 15:51:51,1016,31,-54,0,0,0,12,56,2,34.4,36.09,1018.15,0,0
2022-11-02 15:51:51,1016,31,-54,0,0,0,12,56,2,34.4,36.09,1018.15,0,0
2022-11-02 15:51:51,1016,31,-54,0,0,0,12,56,2,34.4,36.09,1018.15,0,0
2022-11-02 15:51:51,1016,31,-54,0,0,0,12,56,2,34.4,36.09,1018.15,0,0
2022-11-02 15:51:51,1015,19,-52,0,0,0,12,57,0,34.4,36.09,1018.15,0,0
2022-11-02 15:51:51,1015,19,-52,0,0,0,12,57,0,34.4,36.09,1018.15,0,0
2022-11-02 15:51:51,1015,19,-52,0,0,0,12,57,0,34.4,36.09,1018.15,0,0
2022-11-02 15:51:51,1015,19,-52,0,0,0,12,57,0,34.4,36.09,1018.15,0,0
2022-11-02 15:51:51,1015,19,-52,0,0,0,12,57,0,34.4,36.09,1018.15,0,0
2022-11-02 15:51:51,1015,19,-52,0,0,0,12,57,0,34.4,36.09,1018.15,0,0
2022-11-02 15:51:51,1015,19,-52,0,0,0,12,57,0,34.4,36.09,1018.15,0,0
2022-11-02 15:51:51,1015,19,-52,0,0,0,12,57,0,34.4,36.09,1018.15,0,0
2022-11-02 15:51:51,1015,19,-52,0,0,0,12,57,0,34.4,36.09,1018.15,0,0
2022-11-02 15:51:51,1015,19,-52,0,0,0,12,57,0,34.4,36.09,1018.15,0,0
2022-11-02 15:51:51,1015,19,-52,0,0,0,12,57,0,34.4,36.09,1018.15,0,0
2022-11-02 15:51:51,1022,27,-44,0,0,0,9,57,-2,34.4,36.09,1018.15,0,0
2022-11-02 15:51:51,1022,27,-44,0,0,0,9,57,-2,34.4,36.09,1018.15,0,0
2022-11-02 15:51:51,1022,27,-44,0,0,0,9,57,-2,34.4,36.09,1018.15,0,0
2022-11-02 15:51:51,1022,27,-44,0,0,0,9,57,-2,34.4,36.09,1018.15,0,0
2022-11-02 15:51:51,1022,27,-44,0,0,0,9,57,-2,34.4,36.09,1018.15,0,0
2022-11-02 15:51:51,1022,27,-44,0,0,0,9,57,-2,34.4,36.09,1018.15,0,0
2022-11-02 15:51:51,1022,27,-44,0,0,0,9,57,-2,34.4,36.09,1018.15,0,0
2022-11-02 15:51:51,1022,27,-44,0,0,0,9,57,-2,34.4,36.09,1018.15,0,0
2022-11-02 15:51:51,1022,27,-44,0,0,0,9,57,-2,34.4,36.09,1018.15,0,0
2022-11-02 15:51:51,1022,27,-44,0,0,0,9,57,-2,34.4,36.09,1018.15,0,0
2022-11-02 15:51:51,1022,27,-44,0,0,0,9,57,-2,34.4,36.09,1018.15,0,0
2022-11-02 15:51:51,1018,25,-54,0,0,0,13,55,-2,34.4,36.09,1018.15,0,0
2022-11-02 15:51:51,1018,25,-54,0,0,0,13,55,-2,34.4,36.09,1018.15,0,0
2022-11-02 15:51:51,1018,25,-54,0,0,0,13,55,-2,34.4,36.09,1018.15,0,0
2022-11-02 15:51:51,1018,25,-54,0,0,0,13,55,-2,34.4,36.09,1018.15,0,0
2022-11-02 15:51:51,1018,25,-54,0,0,0,13,55,-2,34.4,36.09,1018.15,0,0
2022-11-02 15:51:51,1018,25,-54,0,0,0,13,55,-2,34.4,36.09,1018.15,0,0
2022-11-02 15:51:51,1018,25,-54,0,0,0,13,55,-2,34.4,36.09,1018.15,0,0
2022-11-02 15:51:51,1018,25,-54,0,0,0,13,55,-2,34.4,36.09,1018.15,0,0
2022-11-02 15:51:51,1018,25,-54,0,0,0,13,55,-2,34.4,36.09,1018.15,0,0
2022-11-02 15:51:51,1018,25,-54,0,0,0,13,55,-2,34.4,36.09,1018.15,0,0
2022-11-02 15:51:51,1018,25,-54,0,0,0,13,55,-2,34.4,36.09,1018.15,0,0
2022-11-02 15:51:51,1016,25,-40,0,0,0,12,58,-6,34.4,36.09,1018.15,0,0
2022-11-02 15:51:51,1016,25,-40,0,0,0,12,58,-6,34.4,36.09,1018.15,0,0
2022-11-02 15:51:51,1016,25,-40,0,0,0,12,58,-6,34.4,36.09,1018.15,0,0
2022-11-02 15:51:51,1016,25,-40,0,0,0,12,58,-6,34.4,36.09,1018.15,0,0
2022-11-02 15:51:51,1016,25,-40,0,0,0,12,58,-6,34.4,36.09,1018.15,0,0
2022-11-02 15:51:51,1016,25,-40,0,0,0,12,58,-6,34.4,36.09,1018.15,0,0
2022-11-02 15:51:51,1016,25,-40,0,0,0,12,58,-6,34.4,36.09,1018.15,0,0
2022-11-02 15:51:51,1016,25,-40,0,0,0,12,58,-6,34.4,36.09,1018.15,0,0
2022-11-02 15:51:51,1016,25,-40,0,0,0,12,58,-6,34.4,36.09,1018.15,0,0
2022-11-02 15:51:51,1016,25,-40,0,0,0,12,58,-6,34.4,36.09,1018.15,0,0
2022-11-02 15:51:51,1016,25,-40,0,0,0,12,58,-6,34.4,36.09,1018.15,0,0
2022-11-02 15:51:51,1024,29,-46,1,0,0,12,57,-4,34.4,36.09,1018.15,0,0
2022-11-02 15:51:51,1024,29,-46,1,0,0,12,57,-4,34.4,36.09,1018.15,0,0
2022-11-02 15:51:51,1024,29,-46,1,0,0,12,57,-4,34.4,36.09,1018.15,0,0
2022-11-02 15:51:51,1024,29,-46,1,0,0,12,57,-4,34.4,36.09,1018.15,0,0
2022-11-02 15:51:51,1024,29,-46,1,0,0,12,57,-4,34.4,36.09,1018.15,0,0
2022-11-02 15:51:51,1024,29,-46,1,0,0,12,57,-4,34.4,36.09,1018.15,0,0
2022-11-02 15:51:51,1024,29,-46,1,0,0,12,57,-4,34.4,36.09,1018.15,0,0
2022-11-02 15:51:51,1024,29,-46,1,0,0,12,57,-4,34.4,36.09,1018.15,0,0
2022-11-02 15:51:51,1024,29,-46,1,0,0,12,57,-4,34.4,36.09,1018.15,0,0
2022-11-02 15:51:51,1024,29,-46,1,0,0,12,57,-4,34.4,36.09,1018.15,0,0
2022-11-02 15:51:51,1024,29,-46,1,0,0,12,57,-4,34.4,36.09,1018.15,0,0
2022-11-02 15:51:51,1022,23,-52,0,1,0,12,54,-6,34.4,36.09,1018.15,0,0
2022-11-02 15:51:51,1022,23,-52,0,1,0,12,54,-6,34.4,36.09,1018.15,0,0
2022-11-02 15:51:51,1022,23,-52,0,1,0,12,54,-6,34.4,36.09,1018.15,0,0
2022-11-02 15:51:51,1022,23,-52,0,1,0,12,54,-6,34.4,36.09,1018.15,0,0
2022-11-02 15:51:51,1022,23,-52,0,1,0,12,54,-6,34.4,36.09,1018.15,0,0
2022-11-02 15:51:51,1022,23,-52,0,1,0,12,54,-6,34.4,36.09,1018.15,0,0
2022-11-02 15:51:51,1022,23,-52,0,1,0,12,54,-6,34.4,36.09,1018.15,0,0
2022-11-02 15:51:51,1022,23,-52,0,1,0,12,54,-6,34.4,36.09,1018.15,0,0
2022-11-02 15:51:51,1022,23,-52,0,1,0,12,54,-6,34.4,36.09,1018.15,0,0
2022-11-02 15:51:51,1022,23,-52,0,1,0,12,54,-6,34.4,36.09,1018.15,0,0
2022-11-02 15:51:51,1022,23,-52,0,1,0,12,54,-6,34.4,36.09,1018.15,0,0
2022-11-02 15:51:51,1030,31,-46,0,0,0,13,54,-6,34.4,36.09,1018.15,0,0
2022-11-02 15:51:51,1030,31,-46,0,0,0,13,54,-6,34.4,36.09,1018.15,0,0
2022-11-02 15:51:51,1030,31,-46,0,0,0,13,54,-6,34.4,36.09,1018.15,0,0
2022-11-02 15:51:51,1030,31,-46,0,0,0,13,54,-6,34.4,36.09,1018.15,0,0
2022-11-02 15:51:51,1030,31,-46,0,0,0,13,54,-6,34.4,36.09,1018.15,0,0
2022-11-02 15:51:51,1030,31,-46,0,0,0,13,54,-6,34.4,36.09,1018.15,0,0
2022-11-02 15:51:51,1030,31,-46,0,0,0,13,54,-6,34.4,36.09,1018.15,0,0
2022-11-02 15:51:51,1030,31,-46,0,0,0,13,54,-6,34.4,36.09,1018.15,0,0
2022-11-02 15:51:51,1030,31,-46,0,0,0,13,54,-6,34.4,36.09,1018.15,0,0
2022-11-02 15:51:51,1030,31,-46,0,0,0,13,54,-6,34.4,36.09,1018.15,0,0
2022-11-02 15:51:51,1030,31,-46,0,0,0,13,54,-6,34.4,36.09,1018.15,0,0
2022-11-02 15:51:52,1024,35,-52,1,0,0,11,56,-6,34.4,36.09,1018.15,0,0
2022-11-02 15:51:52,1024,35,-52,1,0,0,11,56,-6,34.4,36.09,1018.15,0,0
2022-11-02 15:51:52,1024,35,-52,1,0,0,11,56,-6,34.4,36.09,1018.15,0,0
2022-11-02 15:51:52,1024,35,-52,1,0,0,11,56,-6,34.4,36.09,1018.15,0,0
2022-11-02 15:51:52,1024,35,-52,1,0,0,11,56,-6,34.4,36.09,1018.15,0,0
2022-11-02 15:51:52,1024,35,-52,1,0,0,11,56,-6,34.4,36.09,1018.15,0,0
2022-11-02 15:51:52,1024,35,-52,1,0,0,11,56,-6,34.4,36.09,1018.15,0,0
2022-11-02 15:51:52,1024,35,-52,1,0,0,11,56,-6,34.4,36.09,1018.15,0,0
2022-11-02 15:51:52,1024,35,-52,1,0,0,11,56,-6,34.4,36.09,1018.15,0,0
2022-11-02 15:51:52,1024,35,-52,1,0,0,11,56,-6,34.4,36.09,1018.15,0,0
2022-11-02 15:51:52,1024,35,-52,1,0,0,11,56,-6,34.4,36.09,1018.15,0,0
2022-11-02 15:51:52,1028,33,-46,0,0,0,12,58,-3,34.4,36.09,1018.15,0,0
2022-11-02 15:51:52,1028,33,-46,0,0,0,12,58,-3,34.4,36.09,1018.15,0,0
2022-11-02 15:51:52,1028,33,-46,0,0,0,12,58,-3,34.4,36.09,1018.15,0,0
2022-11-02 15:51:52,1028,33,-46,0,0,0,12,58,-3,34.4,36.09,1018.15,0,0
2022-11-02 15:51:52,1028,33,-46,0,0,0,12,58,-3,34.4,36.09,1018.15,0,0
2022-11-02 15:51:52,1028,33,-46,0,0,0,12,58,-3,34.4,36.09,1018.15,0,0
2022-11-02 15:51:52,1028,33,-46,0,0,0,12,58,-3,34.4,36.09,1018.15,0,0
2022-11-02 15:51:52,1028,33,-46,0,0,0,12,58,-3,34.4,36.09,1018.15,0,0
2022-11-02 15:51:52,1028,33,-46,0,0,0,12,58,-3,34.4,36.09,1018.15,0,0
2022-11-02 15:51:52,1028,33,-46,0,0,0,12,58,-3,34.4,36.09,1018.15,0,0
2022-11-02 15:51:52,1028,33,-46,0,0,0,12,58,-3,34.4,36.09,1018.15,0,0
2022-11-02 15:51:52,1018,35,-46,0,0,0,14,55,-1,34.4,36.07,1018.12,0,0
2022-11-02 15:51:52,1018,35,-46,0,0,0,14,55,-1,34.4,36.07,1018.12,0,0
2022-11-02 15:51:52,1018,35,-46,0,0,0,14,55,-1,34.4,36.07,1018.12,0,0
2022-11-02 15:51:52,1018,35,-46,0,0,0,14,55,-1,34.4,36.07,1018.12,0,0
2022-11-02 15:51:52,1018,35,-46,0,0,0,14,55,-1,34.4,36.07,1018.12,0,0
2022-11-02 15:51:52,1018,35,-46,0,0,0,14,55,-1,34.4,36.07,1018.12,0,0
2022-11-02 15:51:52,1018,35,-46,0,0,0,14,55,-1,34.4,36.07,1018.12,0,0
2022-11-02 15:51:52,1018,35,-46,0,0,0,14,55,-1,34.4,36.07,1018.12,0,0
2022-11-02 15:51:52,1018,35,-46,0,0,0,14,55,-1,34.4,36.07,1018.12,0,0
2022-11-02 15:51:52,1018,35,-46,0,0,0,14,55,-1,34.4,36.07,1018.12,0,0
2022-11-02 15:51:52,1018,35,-46,0,0,0,14,55,-1,34.4,36.07,1018.12,0,0
2022-11-02 15:51:52,1016,42,-42,0,0,0,12,55,-3,34.4,36.07,1018.12,0,0
2022-11-02 15:51:52,1016,42,-42,0,0,0,12,55,-3,34.4,36.07,1018.12,0,0
2022-11-02 15:51:52,1016,42,-42,0,0,0,12,55,-3,34.4,36.07,1018.12,0,0
2022-11-02 15:51:52,1016,42,-42,0,0,0,12,55,-3,34.4,36.07,1018.12,0,0
2022-11-02 15:51:52,1016,42,-42,0,0,0,12,55,-3,34.4,36.07,1018.12,0,0
2022-11-02 15:51:52,1016,42,-42,0,0,0,12,55,-3,34.4,36.07,1018.12,0,0
2022-11-02 15:51:52,1016,42,-42,0,0,0,12,55,-3,34.4,36.07,1018.12,0,0
2022-11-02 15:51:52,1016,42,-42,0,0,0,12,55,-3,34.4,36.07,1018.12,0,0
2022-11-02 15:51:52,1016,42,-42,0,0,0,12,55,-3,34.4,36.07,1018.12,0,0
2022-11-02 15:51:52,1016,42,-42,0,0,0,12,55,-3,34.4,36.07,1018.12,0,0
2022-11-02 15:51:52,1016,42,-42,0,0,0,12,55,-3,34.4,36.07,1018.12,0,0
2022-11-02 15:51:52,1020,39,-56,0,0,0,13,57,0,34.4,36.07,1018.12,0,0
2022-11-02 15:51:52,1020,39,-56,0,0,0,13,57,0,34.4,36.07,1018.12,0,0
2022-11-02 15:51:52,1020,39,-56,0,0,0,13,57,0,34.4,36.07,1018.12,0,0
2022-11-02 15:51:52,1020,39,-56,0,0,0,13,57,0,34.4,36.07,1018.12,0,0
2022-11-02 15:51:52,1020,39,-56,0,0,0,13,57,0,34.4,36.07,1018.12,0,0
2022-11-02 15:51:52,1020,39,-56,0,0,0,13,57,0,34.4,36.07,1018.12,0,0
2022-11-02 15:51:52,1020,39,-56,0,0,0,13,57,0,34.4,36.07,1018.12,0,0
2022-11-02 15:51:52,1020,39,-56,0,0,0,13,57,0,34.4,36.07,1018.12,0,0
2022-11-02 15:51:52,1020,39,-56,0,0,0,13,57,0,34.4,36.07,1018.12,0,0
2022-11-02 15:51:52,1020,39,-56,0,0,0,13,57,0,34.4,36.07,1018.12,0,0
2022-11-02 15:51:52,1020,39,-56,0,0,0,13,57,0,34.4,36.07,1018.12,0,0
2022-11-02 15:51:52,1016,33,-46,0,1,0,12,57,-6,34.4,36.07,1018.12,0,0
2022-11-02 15:51:52,1016,33,-46,0,1,0,12,57,-6,34.4,36.07,1018.12,0,0
2022-11-02 15:51:52,1016,33,-46,0,1,0,12,57,-6,34.4,36.07,1018.12,0,0
2022-11-02 15:51:52,1016,33,-46,0,1,0,12,57,-6,34.4,36.07,1018.12,0,0
2022-11-02 15:51:52,1016,33,-46,0,1,0,12,57,-6,34.4,36.07,1018.12,0,0
2022-11-02 15:51:52,1016,33,-46,0,1,0,12,57,-6,34.4,36.07,1018.12,0,0
2022-11-02 15:51:52,1016,33,-46,0,1,0,12,57,-6,34.4,36.07,1018.12,0,0
2022-11-02 15:51:52,1016,33,-46,0,1,0,12,57,-6,34.4,36.07,1018.12,0,0
2022-11-02 15:51:52,1016,33,-46,0,1,0,12,57,-6,34.4,36.07,1018.12,0,0
2022-11-02 15:51:52,1016,33,-46,0,1,0,12,57,-6,34.4,36.07,1018.12,0,0
2022-11-02 15:51:52,1016,33,-46,0,1,0,12,57,-6,34.4,36.07,1018.12,0,0
2022-11-02 15:51:52,1020,40,-46,2,1,0,11,55,-6,34.4,36.07,1018.12,0,0
2022-11-02 15:51:52,1020,40,-46,2,1,0,11,55,-6,34.4,36.07,1018.12,0,0
2022-11-02 15:51:52,1020,40,-46,2,1,0,11,55,-6,34.4,36.07,1018.12,0,0
2022-11-02 15:51:52,1020,40,-46,2,1,0,11,55,-6,34.4,36.07,1018.12,0,0
2022-11-02 15:51:52,1020,40,-46,2,1,0,11,55,-6,34.4,36.07,1018.12,0,0
2022-11-02 15:51:52,1020,40,-46,2,1,0,11,55,-6,34.4,36.07,1018.12,0,0
2022-11-02 15:51:52,1020,40,-46,2,1,0,11,55,-6,34.4,36.07,1018.12,0,0
2022-11-02 15:51:52,1020,40,-46,2,1,0,11,55,-6,34.4,36.07,1018.12,0,0
2022-11-02 15:51:52,1020,40,-46,2,1,0,11,55,-6,34.4,36.07,1018.12,0,0
2022-11-02 15:51:52,1020,40,-46,2,1,0,11,55,-6,34.4,36.07,1018.12,0,0
2022-11-02 15:51:52,1020,40,-46,2,1,0,11,55,-6,34.4,36.07,1018.12,0,0
2022-11-02 15:51:52,1020,39,-46,0,1,0,12,56,-6,34.4,36.07,1018.12,0,0
2022-11-02 15:51:52,1020,39,-46,0,1,0,12,56,-6,34.4,36.07,1018.12,0,0
2022-11-02 15:51:52,1020,39,-46,0,1,0,12,56,-6,34.4,36.07,1018.12,0,0
2022-11-02 15:51:52,1020,39,-46,0,1,0,12,56,-6,34.4,36.07,1018.12,0,0
2022-11-02 15:51:52,1020,39,-46,0,1,0,12,56,-6,34.4,36.07,1018.12,0,0
2022-11-02 15:51:52,1020,39,-46,0,1,0,12,56,-6,34.4,36.07,1018.12,0,0
2022-11-02 15:51:52,1020,39,-46,0,1,0,12,56,-6,34.4,36.07,1018.12,0,0
2022-11-02 15:51:52,1020,39,-46,0,1,0,12,56,-6,34.4,36.07,1018.12,0,0
2022-11-02 15:51:52,1020,39,-46,0,1,0,12,56,-6,34.4,36.07,1018.12,0,0
2022-11-02 15:51:52,1020,39,-46,0,1,0,12,56,-6,34.4,36.07,1018.12,0,0
2022-11-02 15:51:52,1020,39,-46,0,1,0,12,56,-6,34.4,36.07,1018.12,0,0
2022-11-02 15:51:52,1024,42,-50,0,0,0,12,53,-2,34.4,36.07,1018.12,0,0
2022-11-02 15:51:52,1024,42,-50,0,0,0,12,53,-2,34.4,36.07,1018.12,0,0
2022-11-02 15:51:52,1024,42,-50,0,0,0,12,53,-2,34.4,36.07,1018.12,0,0
2022-11-02 15:51:52,1024,42,-50,0,0,0,12,53,-2,34.4,36.07,1018.12,0,0
2022-11-02 15:51:52,1024,42,-50,0,0,0,12,53,-2,34.4,36.07,1018.12,0,0
2022-11-02 15:51:52,1024,42,-50,0,0,0,12,53,-2,34.4,36.07,1018.12,0,0
2022-11-02 15:51:52,1024,42,-50,0,0,0,12,53,-2,34.4,36.07,1018.12,0,0
2022-11-02 15:51:52,1024,42,-50,0,0,0,12,53,-2,34.4,36.07,1018.12,0,0
2022-11-02 15:51:52,1024,42,-50,0,0,0,12,53,-2,34.4,36.07,1018.12,0,0
2022-11-02 15:51:52,1024,42,-50,0,0,0,12,53,-2,34.4,36.07,1018.12,0,0
2022-11-02 15:51:52,1024,42,-50,0,0,0,12,53,-2,34.4,36.07,1018.12,0,0
2022-11-02 15:51:52,1022,33,-37,-1,0,0,13,54,-4,34.4,36.07,1018.12,0,0
2022-11-02 15:51:52,1022,33,-37,-1,0,0,13,54,-4,34.4,36.07,1018.12,0,0
2022-11-02 15:51:52,1022,33,-37,-1,0,0,13,54,-4,34.4,36.07,1018.12,0,0
2022-11-02 15:51:52,1022,33,-37,-1,0,0,13,54,-4,34.4,36.07,1018.12,0,0
2022-11-02 15:51:52,1022,33,-37,-1,0,0,13,54,-4,34.4,36.07,1018.12,0,0
2022-11-02 15:51:52,1022,33,-37,-1,0,0,13,54,-4,34.4,36.07,1018.12,0,0
2022-11-02 15:51:52,1022,33,-37,-1,0,0,13,54,-4,34.4,36.07,1018.12,0,0
2022-11-02 15:51:52,1022,33,-37,-1,0,0,13,54,-4,34.4,36.07,1018.12,0,0
2022-11-02 15:51:52,1022,33,-37,-1,0,0,13,54,-4,34.4,36.07,1018.12,0,0
2022-11-02 15:51:52,1022,33,-37,-1,0,0,13,54,-4,34.4,36.07,1018.12,0,0
2022-11-02 15:51:52,1022,33,-37,-1,0,0,13,54,-4,34.4,36.07,1018.12,0,0
2022-11-02 15:51:53,1016,42,-46,0,1,1,13,55,-1,34.4,36.07,1018.12,0,0
2022-11-02 15:51:53,1016,42,-46,0,1,1,13,55,-1,34.4,36.07,1018.12,0,0
2022-11-02 15:51:53,1016,42,-46,0,1,1,13,55,-1,34.4,36.07,1018.12,0,0
2022-11-02 15:51:53,1016,42,-46,0,1,1,13,55,-1,34.4,36.07,1018.12,0,0
2022-11-02 15:51:53,1016,42,-46,0,1,1,13,55,-1,34.4,36.07,1018.12,0,0
2022-11-02 15:51:53,1016,42,-46,0,1,1,13,55,-1,34.4,36.07,1018.12,0,0
2022-11-02 15:51:53,1016,42,-46,0,1,1,13,55,-1,34.4,36.07,1018.12,0,0
2022-11-02 15:51:53,1016,42,-46,0,1,1,13,55,-1,34.4,36.07,1018.12,0,0
2022-11-02 15:51:53,1016,42,-46,0,1,1,13,55,-1,34.4,36.07,1018.12,0,0
2022-11-02 15:51:53,1016,42,-46,0,1,1,13,55,-1,34.4,36.07,1018.12,0,0
2022-11-02 15:51:53,1016,42,-46,0,1,1,13,55,-1,34.4,36.07,1018.12,0,0
2022-11-02 15:51:53,1022,17,-25,-2,2,1,11,55,-1,34.4,36.07,1018.12,0,0
2022-11-02 15:51:53,1022,17,-25,-2,2,1,11,55,-1,34.4,36.07,1018.12,0,0
2022-11-02 15:51:53,1022,17,-25,-2,2,1,11,55,-1,34.4,36.07,1018.12,0,0
2022-11-02 15:51:53,1022,17,-25,-2,2,1,11,55,-1,34.4,36.07,1018.12,0,0
2022-11-02 15:51:53,1022,17,-25,-2,2,1,11,55,-1,34.4,36.07,1018.12,0,0
2022-11-02 15:51:53,1022,17,-25,-2,2,1,11,55,-1,34.4,36.07,1018.12,0,0
2022-11-02 15:51:53,1022,17,-25,-2,2,1,11,55,-1,34.4,36.07,1018.12,0,0
2022-11-02 15:51:53,1022,17,-25,-2,2,1,11,55,-1,34.4,36.07,1018.12,0,0
2022-11-02 15:51:53,1022,17,-25,-2,2,1,11,55,-1,34.4,36.07,1018.12,0,0
2022-11-02 15:51:53,1022,17,-25,-2,2,1,11,55,-1,34.4,36.07,1018.12,0,0
2022-11-02 15:51:53,1022,17,-25,-2,2,1,11,55,-1,34.4,36.07,1018.12,0,0
2022-11-02 15:51:53,1015,39,-31,0,0,0,13,55,-7,34.4,36.06,1018.18,0,0
2022-11-02 15:51:53,1015,39,-31,0,0,0,13,55,-7,34.4,36.06,1018.18,0,0
2022-11-02 15:51:53,1015,39,-31,0,0,0,13,55,-7,34.4,36.06,1018.18,0,0
2022-11-02 15:51:53,1015,39,-31,0,0,0,13,55,-7,34.4,36.06,1018.18,0,0
2022-11-02 15:51:53,1015,39,-31,0,0,0,13,55,-7,34.4,36.06,1018.18,0,0
2022-11-02 15:51:53,1015,39,-31,0,0,0,13,55,-7,34.4,36.06,1018.18,0,0
2022-11-02 15:51:53,1015,39,-31,0,0,0,13,55,-7,34.4,36.06,1018.18,0,0
2022-11-02 15:51:53,1015,39,-31,0,0,0,13,55,-7,34.4,36.06,1018.18,0,0
2022-11-02 15:51:53,1015,39,-31,0,0,0,13,55,-7,34.4,36.06,1018.18,0,0
2022-11-02 15:51:53,1015,39,-31,0,0,0,13,55,-7,34.4,36.06,1018.18,0,0
2022-11-02 15:51:53,1015,39,-31,0,0,0,13,55,-7,34.4,36.06,1018.18,0,0
2022-11-02 15:51:53,1026,37,-40,-1,0,0,12,53,-7,34.4,36.06,1018.18,0,0
2022-11-02 15:51:53,1026,37,-40,-1,0,0,12,53,-7,34.4,36.06,1018.18,0,0
2022-11-02 15:51:53,1026,37,-40,-1,0,0,12,53,-7,34.4,36.06,1018.18,0,0
2022-11-02 15:51:53,1026,37,-40,-1,0,0,12,53,-7,34.4,36.06,1018.18,0,0
2022-11-02 15:51:53,1026,37,-40,-1,0,0,12,53,-7,34.4,36.06,1018.18,0,0
2022-11-02 15:51:53,1026,37,-40,-1,0,0,12,53,-7,34.4,36.06,1018.18,0,0
2022-11-02 15:51:53,1026,37,-40,-1,0,0,12,53,-7,34.4,36.06,1018.18,0,0
2022-11-02 15:51:53,1026,37,-40,-1,0,0,12,53,-7,34.4,36.06,1018.18,0,0
2022-11-02 15:51:53,1026,37,-40,-1,0,0,12,53,-7,34.4,36.06,1018.18,0,0
2022-11-02 15:51:53,1026,37,-40,-1,0,0,12,53,-7,34.4,36.06,1018.18,0,0
2022-11-02 15:51:53,1026,37,-40,-1,0,0,12,53,-7,34.4,36.06,1018.18,0,0
2022-11-02 15:51:53,1018,33,-40,0,0,0,11,55,-6,34.4,36.06,1018.18,0,0
2022-11-02 15:51:53,1018,33,-40,0,0,0,11,55,-6,34.4,36.06,1018.18,0,0
2022-11-02 15:51:53,1018,33,-40,0,0,0,11,55,-6,34.4,36.06,1018.18,0,0
2022-11-02 15:51:53,1018,33,-40,0,0,0,11,55,-6,34.4,36.06,1018.18,0,0
2022-11-02 15:51:53,1018,33,-40,0,0,0,11,55,-6,34.4,36.06,1018.18,0,0
2022-11-02 15:51:53,1018,33,-40,0,0,0,11,55,-6,34.4,36.06,1018.18,0,0
2022-11-02 15:51:53,1018,33,-40,0,0,0,11,55,-6,34.4,36.06,1018.18,0,0
2022-11-02 15:51:53,1018,33,-40,0,0,0,11,55,-6,34.4,36.06,1018.18,0,0
2022-11-02 15:51:53,1018,33,-40,0,0,0,11,55,-6,34.4,36.06,1018.18,0,0
2022-11-02 15:51:53,1018,33,-40,0,0,0,11,55,-6,34.4,36.06,1018.18,0,0
2022-11-02 15:51:53,1018,33,-40,0,0,0,11,55,-6,34.4,36.06,1018.18,0,0
2022-11-02 15:51:53,1022,31,-35,-1,0,0,10,55,-6,34.4,36.06,1018.18,0,0
2022-11-02 15:51:53,1022,31,-35,-1,0,0,10,55,-6,34.4,36.06,1018.18,0,0
2022-11-02 15:51:53,1022,31,-35,-1,0,0,10,55,-6,34.4,36.06,1018.18,0,0
2022-11-02 15:51:53,1022,31,-35,-1,0,0,10,55,-6,34.4,36.06,1018.18,0,0
2022-11-02 15:51:53,1022,31,-35,-1,0,0,10,55,-6,34.4,36.06,1018.18,0,0
2022-11-02 15:51:53,1022,31,-35,-1,0,0,10,55,-6,34.4,36.06,1018.18,0,0
2022-11-02 15:51:53,1022,31,-35,-1,0,0,10,55,-6,34.4,36.06,1018.18,0,0
2022-11-02 15:51:53,1022,31,-35,-1,0,0,10,55,-6,34.4,36.06,1018.18,0,0
2022-11-02 15:51:53,1022,31,-35,-1,0,0,10,55,-6,34.4,36.06,1018.18,0,0
2022-11-02 15:51:53,1022,31,-35,-1,0,0,10,55,-6,34.4,36.06,1018.18,0,0
2022-11-02 15:51:53,1022,31,-35,-1,0,0,10,55,-6,34.4,36.06,1018.18,0,0
2022-11-02 15:51:53,1016,29,-56,-1,0,0,13,54,-5,34.4,36.06,1018.18,0,0
2022-11-02 15:51:53,1016,29,-56,-1,0,0,13,54,-5,34.4,36.06,1018.18,0,0
2022-11-02 15:51:53,1016,29,-56,-1,0,0,13,54,-5,34.4,36.06,1018.18,0,0
2022-11-02 15:51:53,1016,29,-56,-1,0,0,13,54,-5,34.4,36.06,1018.18,0,0
2022-11-02 15:51:53,1016,29,-56,-1,0,0,13,54,-5,34.4,36.06,1018.18,0,0
2022-11-02 15:51:53,1016,29,-56,-1,0,0,13,54,-5,34.4,36.06,1018.18,0,0
2022-11-02 15:51:53,1016,29,-56,-1,0,0,13,54,-5,34.4,36.06,1018.18,0,0
2022-11-02 15:51:53,1016,29,-56,-1,0,0,13,54,-5,34.4,36.06,1018.18,0,0
2022-11-02 15:51:53,1016,29,-56,-1,0,0,13,54,-5,34.4,36.06,1018.18,0,0
2022-11-02 15:51:53,1016,29,-56,-1,0,0,13,54,-5,34.4,36.06,1018.18,0,0
2022-11-02 15:51:53,1016,29,-56,-1,0,0,13,54,-5,34.4,36.06,1018.18,0,0
2022-11-02 15:51:53,1024,31,-35,-1,0,0,12,56,-1,34.4,36.06,1018.18,0,0
2022-11-02 15:51:53,1024,31,-35,-1,0,0,12,56,-1,34.4,36.06,1018.18,0,0
2022-11-02 15:51:53,1024,31,-35,-1,0,0,12,56,-1,34.4,36.06,1018.18,0,0
2022-11-02 15:51:53,1024,31,-35,-1,0,0,12,56,-1,34.4,36.06,1018.18,0,0
2022-11-02 15:51:53,1024,31,-35,-1,0,0,12,56,-1,34.4,36.06,1018.18,0,0
2022-11-02 15:51:53,1024,31,-35,-1,0,0,12,56,-1,34.4,36.06,1018.18,0,0
2022-11-02 15:51:53,1024,31,-35,-1,0,0,12,56,-1,34.4,36.06,1018.18,0,0
2022-11-02 15:51:53,1024,31,-35,-1,0,0,12,56,-1,34.4,36.06,1018.18,0,0
2022-11-02 15:51:53,1024,31,-35,-1,0,0,12,56,-1,34.4,36.06,1018.18,0,0
2022-11-02 15:51:53,1024,31,-35,-1,0,0,12,56,-1,34.4,36.06,1018.18,0,0
2022-11-02 15:51:53,1024,31,-35,-1,0,0,12,56,-1,34.4,36.06,1018.18,0,0
2022-11-02 15:51:53,1024,23,-35,0,1,0,13,55,-3,34.4,36.06,1018.18,0,0
2022-11-02 15:51:53,1024,23,-35,0,1,0,13,55,-3,34.4,36.06,1018.18,0,0
2022-11-02 15:51:53,1024,23,-35,0,1,0,13,55,-3,34.4,36.06,1018.18,0,0
2022-11-02 15:51:53,1024,23,-35,0,1,0,13,55,-3,34.4,36.06,1018.18,0,0
2022-11-02 15:51:53,1024,23,-35,0,1,0,13,55,-3,34.4,36.06,1018.18,0,0
2022-11-02 15:51:53,1024,23,-35,0,1,0,13,55,-3,34.4,36.06,1018.18,0,0
2022-11-02 15:51:53,1024,23,-35,0,1,0,13,55,-3,34.4,36.06,1018.18,0,0
2022-11-02 15:51:53,1024,23,-35,0,1,0,13,55,-3,34.4,36.06,1018.18,0,0
2022-11-02 15:51:53,1024,23,-35,0,1,0,13,55,-3,34.4,36.06,1018.18,0,0
2022-11-02 15:51:53,1024,23,-35,0,1,0,13,55,-3,34.4,36.06,1018.18,0,0
2022-11-02 15:51:53,1024,23,-35,0,1,0,13,55,-3,34.4,36.06,1018.18,0,0
2022-11-02 15:51:53,1015,29,-33,0,0,0,12,54,-6,34.4,36.06,1018.18,0,0
2022-11-02 15:51:53,1015,29,-33,0,0,0,12,54,-6,34.4,36.06,1018.18,0,0
2022-11-02 15:51:53,1015,29,-33,0,0,0,12,54,-6,34.4,36.06,1018.18,0,0
2022-11-02 15:51:53,1015,29,-33,0,0,0,12,54,-6,34.4,36.06,1018.18,0,0
2022-11-02 15:51:53,1015,29,-33,0,0,0,12,54,-6,34.4,36.06,1018.18,0,0
2022-11-02 15:51:53,1015,29,-33,0,0,0,12,54,-6,34.4,36.06,1018.18,0,0
2022-11-02 15:51:53,1015,29,-33,0,0,0,12,54,-6,34.4,36.06,1018.18,0,0
2022-11-02 15:51:53,1015,29,-33,0,0,0,12,54,-6,34.4,36.06,1018.18,0,0
2022-11-02 15:51:53,1015,29,-33,0,0,0,12,54,-6,34.4,36.06,1018.18,0,0
2022-11-02 15:51:53,1015,29,-33,0,0,0,12,54,-6,34.4,36.06,1018.18,0,0
2022-11-02 15:51:53,1015,29,-33,0,0,0,12,54,-6,34.4,36.06,1018.18,0,0
2022-11-02 15:51:54,1024,21,-40,0,1,0,13,56,-1,34.4,36.06,1018.18,0,0
2022-11-02 15:51:54,1024,21,-40,0,1,0,13,56,-1,34.4,36.06,1018.18,0,0
2022-11-02 15:51:54,1024,21,-40,0,1,0,13,56,-1,34.4,36.06,1018.18,0,0
2022-11-02 15:51:54,1024,21,-40,0,1,0,13,56,-1,34.4,36.06,1018.18,0,0
2022-11-02 15:51:54,1024,21,-40,0,1,0,13,56,-1,34.4,36.06,1018.18,0,0
2022-11-02 15:51:54,1024,21,-40,0,1,0,13,56,-1,34.4,36.06,1018.18,0,0
2022-11-02 15:51:54,1024,21,-40,0,1,0,13,56,-1,34.4,36.06,1018.18,0,0
2022-11-02 15:51:54,1024,21,-40,0,1,0,13,56,-1,34.4,36.06,1018.18,0,0
2022-11-02 15:51:54,1024,21,-40,0,1,0,13,56,-1,34.4,36.06,1018.18,0,0
2022-11-02 15:51:54,1024,21,-40,0,1,0,13,56,-1,34.4,36.06,1018.18,0,0
2022-11-02 15:51:54,1024,21,-40,0,1,0,13,56,-1,34.4,36.06,1018.18,0,0
2022-11-02 15:51:54,1016,19,-25,-1,1,0,13,56,-6,34.4,36.06,1018.18,0,0
2022-11-02 15:51:54,1016,19,-25,-1,1,0,13,56,-6,34.4,36.06,1018.18,0,0
2022-11-02 15:51:54,1016,19,-25,-1,1,0,13,56,-6,34.4,36.06,1018.18,0,0
2022-11-02 15:51:54,1016,19,-25,-1,1,0,13,56,-6,34.4,36.06,1018.18,0,0
2022-11-02 15:51:54,1016,19,-25,-1,1,0,13,56,-6,34.4,36.06,1018.18,0,0
2022-11-02 15:51:54,1016,19,-25,-1,1,0,13,56,-6,34.4,36.06,1018.18,0,0
2022-11-02 15:51:54,1016,19,-25,-1,1,0,13,56,-6,34.4,36.06,1018.18,0,0
2022-11-02 15:51:54,1016,19,-25,-1,1,0,13,56,-6,34.4,36.06,1018.18,0,0
2022-11-02 15:51:54,1016,19,-25,-1,1,0,13,56,-6,34.4,36.06,1018.18,0,0
2022-11-02 15:51:54,1016,19,-25,-1,1,0,13,56,-6,34.4,36.06,1018.18,0,0
2022-11-02 15:51:54,1016,19,-25,-1,1,0,13,56,-6,34.4,36.06,1018.18,0,0
2022-11-02 15:51:54,1024,25,-29,-1,0,0,13,57,-5,34.4,36.06,1018.15,0,0
2022-11-02 15:51:54,1024,25,-29,-1,0,0,13,57,-5,34.4,36.06,1018.15,0,0
2022-11-02 15:51:54,1024,25,-29,-1,0,0,13,57,-5,34.4,36.06,1018.15,0,0
2022-11-02 15:51:54,1024,25,-29,-1,0,0,13,57,-5,34.4,36.06,1018.15,0,0
2022-11-02 15:51:54,1024,25,-29,-1,0,0,13,57,-5,34.4,36.06,1018.15,0,0
2022-11-02 15:51:54,1024,25,-29,-1,0,0,13,57,-5,34.4,36.06,1018.15,0,0
2022-11-02 15:51:54,1024,25,-29,-1,0,0,13,57,-5,34.4,36.06,1018.15,0,0
2022-11-02 15:51:54,1024,25,-29,-1,0,0,13,57,-5,34.4,36.06,1018.15,0,0
2022-11-02 15:51:54,1024,25,-29,-1,0,0,13,57,-5,34.4,36.06,1018.15,0,0
2022-11-02 15:51:54,1024,25,-29,-1,0,0,13,57,-5,34.4,36.06,1018.15,0,0
2022-11-02 15:51:54,1024,25,-29,-1,0,0,13,57,-5,34.4,36.06,1018.15,0,0
2022-11-02 15:51:54,1022,25,-27,-1,1,1,13,53,-3,34.4,36.06,1018.15,0,0
2022-11-02 15:51:54,1022,25,-27,-1,1,1,13,53,-3,34.4,36.06,1018.15,0,0
2022-11-02 15:51:54,1022,25,-27,-1,1,1,13,53,-3,34.4,36.06,1018.15,0,0
2022-11-02 15:51:54,1022,25,-27,-1,1,1,13,53,-3,34.4,36.06,1018.15,0,0
2022-11-02 15:51:54,1022,25,-27,-1,1,1,13,53,-3,34.4,36.06,1018.15,0,0
2022-11-02 15:51:54,1022,25,-27,-1,1,1,13,53,-3,34.4,36.06,1018.15,0,0
2022-11-02 15:51:54,1022,25,-27,-1,1,1,13,53,-3,34.4,36.06,1018.15,0,0
2022-11-02 15:51:54,1022,25,-27,-1,1,1,13,53,-3,34.4,36.06,1018.15,0,0
2022-11-02 15:51:54,1022,25,-27,-1,1,1,13,53,-3,34.4,36.06,1018.15,0,0
2022-11-02 15:51:54,1022,25,-27,-1,1,1,13,53,-3,34.4,36.06,1018.15,0,0
2022-11-02 15:51:54,1022,25,-27,-1,1,1,13,53,-3,34.4,36.06,1018.15,0,0
2022-11-02 15:51:54,1016,27,-27,0,0,0,11,56,-2,34.4,36.06,1018.15,0,0
2022-11-02 15:51:54,1016,27,-27,0,0,0,11,56,-2,34.4,36.06,1018.15,0,0
2022-11-02 15:51:54,1016,27,-27,0,0,0,11,56,-2,34.4,36.06,1018.15,0,0
2022-11-02 15:51:54,1016,27,-27,0,0,0,11,56,-2,34.4,36.06,1018.15,0,0
2022-11-02 15:51:54,1016,27,-27,0,0,0,11,56,-2,34.4,36.06,1018.15,0,0
2022-11-02 15:51:54,1016,27,-27,0,0,0,11,56,-2,34.4,36.06,1018.15,0,0
2022-11-02 15:51:54,1016,27,-27,0,0,0,11,56,-2,34.4,36.06,1018.15,0,0
2022-11-02 15:51:54,1016,27,-27,0,0,0,11,56,-2,34.4,36.06,1018.15,0,0
2022-11-02 15:51:54,1016,27,-27,0,0,0,11,56,-2,34.4,36.06,1018.15,0,0
2022-11-02 15:51:54,1016,27,-27,0,0,0,11,56,-2,34.4,36.06,1018.15,0,0
2022-11-02 15:51:54,1016,27,-27,0,0,0,11,56,-2,34.4,36.06,1018.15,0,0
2022-11-02 15:51:54,1016,23,-33,-1,0,1,15,54,-3,34.4,36.06,1018.15,0,0
2022-11-02 15:51:54,1016,23,-33,-1,0,1,15,54,-3,34.4,36.06,1018.15,0,0
2022-11-02 15:51:54,1016,23,-33,-1,0,1,15,54,-3,34.4,36.06,1018.15,0,0
2022-11-02 15:51:54,1016,23,-33,-1,0,1,15,54,-3,34.4,36.06,1018.15,0,0
2022-11-02 15:51:54,1016,23,-33,-1,0,1,15,54,-3,34.4,36.06,1018.15,0,0
2022-11-02 15:51:54,1016,23,-33,-1,0,1,15,54,-3,34.4,36.06,1018.15,0,0
2022-11-02 15:51:54,1016,23,-33,-1,0,1,15,54,-3,34.4,36.06,1018.15,0,0
2022-11-02 15:51:54,1016,23,-33,-1,0,1,15,54,-3,34.4,36.06,1018.15,0,0
2022-11-02 15:51:54,1016,23,-33,-1,0,1,15,54,-3,34.4,36.06,1018.15,0,0
2022-11-02 15:51:54,1016,23,-33,-1,0,1,15,54,-3,34.4,36.06,1018.15,0,0
2022-11-02 15:51:54,1016,23,-33,-1,0,1,15,54,-3,34.4,36.06,1018.15,0,0
2022-11-02 15:51:54,1018,25,-31,0,0,0,13,54,-5,34.4,36.06,1018.15,0,0
2022-11-02 15:51:54,1018,25,-31,0,0,0,13,54,-5,34.4,36.06,1018.15,0,0
2022-11-02 15:51:54,1018,25,-31,0,0,0,13,54,-5,34.4,36.06,1018.15,0,0
2022-11-02 15:51:54,1018,25,-31,0,0,0,13,54,-5,34.4,36.06,1018.15,0,0
2022-11-02 15:51:54,1018,25,-31,0,0,0,13,54,-5,34.4,36.06,1018.15,0,0
2022-11-02 15:51:54,1018,25,-31,0,0,0,13,54,-5,34.4,36.06,1018.15,0,0
2022-11-02 15:51:54,1018,25,-31,0,0,0,13,54,-5,34.4,36.06,1018.15,0,0
2022-11-02 15:51:54,1018,25,-31,0,0,0,13,54,-5,34.4,36.06,1018.15,0,0
2022-11-02 15:51:54,1018,25,-31,0,0,0,13,54,-5,34.4,36.06,1018.15,0,0
2022-11-02 15:51:54,1018,25,-31,0,0,0,13,54,-5,34.4,36.06,1018.15,0,0
2022-11-02 15:51:54,1018,25,-31,0,0,0,13,54,-5,34.4,36.06,1018.15,0,0
2022-11-02 15:51:54,1016,9,-25,-1,0,0,15,56,0,34.4,36.06,1018.15,0,0
2022-11-02 15:51:54,1016,9,-25,-1,0,0,15,56,0,34.4,36.06,1018.15,0,0
2022-11-02 15:51:54,1016,9,-25,-1,0,0,15,56,0,34.4,36.06,1018.15,0,0
2022-11-02 15:51:54,1016,9,-25,-1,0,0,15,56,0,34.4,36.06,1018.15,0,0
2022-11-02 15:51:54,1016,9,-25,-1,0,0,15,56,0,34.4,36.06,1018.15,0,0
2022-11-02 15:51:54,1016,9,-25,-1,0,0,15,56,0,34.4,36.06,1018.15,0,0
2022-11-02 15:51:54,1016,9,-25,-1,0,0,15,56,0,34.4,36.06,1018.15,0,0
2022-11-02 15:51:54,1016,9,-25,-1,0,0,15,56,0,34.4,36.06,1018.15,0,0
2022-11-02 15:51:54,1016,9,-25,-1,0,0,15,56,0,34.4,36.06,1018.15,0,0
2022-11-02 15:51:54,1016,9,-25,-1,0,0,15,56,0,34.4,36.06,1018.15,0,0
2022-11-02 15:51:54,1016,9,-25,-1,0,0,15,56,0,34.4,36.06,1018.15,0,0
2022-11-02 15:51:54,1028,19,-29,0,0,0,14,55,-1,34.4,36.06,1018.15,0,0
2022-11-02 15:51:54,1028,19,-29,0,0,0,14,55,-1,34.4,36.06,1018.15,0,0
2022-11-02 15:51:54,1028,19,-29,0,0,0,14,55,-1,34.4,36.06,1018.15,0,0
2022-11-02 15:51:54,1028,19,-29,0,0,0,14,55,-1,34.4,36.06,1018.15,0,0
2022-11-02 15:51:54,1028,19,-29,0,0,0,14,55,-1,34.4,36.06,1018.15,0,0
2022-11-02 15:51:54,1028,19,-29,0,0,0,14,55,-1,34.4,36.06,1018.15,0,0
2022-11-02 15:51:54,1028,19,-29,0,0,0,14,55,-1,34.4,36.06,1018.15,0,0
2022-11-02 15:51:54,1028,19,-29,0,0,0,14,55,-1,34.4,36.06,1018.15,0,0
2022-11-02 15:51:54,1028,19,-29,0,0,0,14,55,-1,34.4,36.06,1018.15,0,0
2022-11-02 15:51:54,1028,19,-29,0,0,0,14,55,-1,34.4,36.06,1018.15,0,0
2022-11-02 15:51:54,1028,19,-29,0,0,0,14,55,-1,34.4,36.06,1018.15,0,0
2022-11-02 15:51:54,1024,27,-31,0,0,0,12,54,0,34.4,36.06,1018.15,0,0
2022-11-02 15:51:54,1024,27,-31,0,0,0,12,54,0,34.4,36.06,1018.15,0,0
2022-11-02 15:51:54,1024,27,-31,0,0,0,12,54,0,34.4,36.06,1018.15,0,0
2022-11-02 15:51:54,1024,27,-31,0,0,0,12,54,0,34.4,36.06,1018.15,0,0
2022-11-02 15:51:54,1024,27,-31,0,0,0,12,54,0,34.4,36.06,1018.15,0,0
2022-11-02 15:51:54,1024,27,-31,0,0,0,12,54,0,34.4,36.06,1018.15,0,0
2022-11-02 15:51:54,1024,27,-31,0,0,0,12,54,0,34.4,36.06,1018.15,0,0
2022-11-02 15:51:54,1024,27,-31,0,0,0,12,54,0,34.4,36.06,1018.15,0,0
2022-11-02 15:51:54,1024,27,-31,0,0,0,12,54,0,34.4,36.06,1018.15,0,0
2022-11-02 15:51:54,1024,27,-31,0,0,0,12,54,0,34.4,36.06,1018.15,0,0
2022-11-02 15:51:54,1024,27,-31,0,0,0,12,54,0,34.4,36.06,1018.15,0,0
2022-11-02 15:51:55,1020,15,-39,0,0,0,14,56,-4,34.4,36.06,1018.15,0,0
2022-11-02 15:51:55,1020,15,-39,0,0,0,14,56,-4,34.4,36.06,1018.15,0,0
2022-11-02 15:51:55,1020,15,-39,0,0,0,14,56,-4,34.4,36.06,1018.15,0,0
2022-11-02 15:51:55,1020,15,-39,0,0,0,14,56,-4,34.4,36.06,1018.15,0,0
2022-11-02 15:51:55,1020,15,-39,0,0,0,14,56,-4,34.4,36.06,1018.15,0,0
2022-11-02 15:51:55,1020,15,-39,0,0,0,14,56,-4,34.4,36.06,1018.15,0,0
2022-11-02 15:51:55,1020,15,-39,0,0,0,14,56,-4,34.4,36.06,1018.15,0,0
2022-11-02 15:51:55,1020,15,-39,0,0,0,14,56,-4,34.4,36.06,1018.15,0,0
2022-11-02 15:51:55,1020,15,-39,0,0,0,14,56,-4,34.4,36.06,1018.15,0,0
2022-11-02 15:51:55,1020,15,-39,0,0,0,14,56,-4,34.4,36.06,1018.15,0,0
2022-11-02 15:51:55,1020,15,-39,0,0,0,14,56,-4,34.4,36.06,1018.15,0,0
2022-11-02 15:51:55,1022,19,-37,0,0,0,12,56,-1,34.4,36.06,1018.15,0,0
2022-11-02 15:51:55,1022,19,-37,0,0,0,12,56,-1,34.4,36.06,1018.15,0,0
2022-11-02 15:51:55,1022,19,-37,0,0,0,12,56,-1,34.4,36.06,1018.15,0,0
2022-11-02 15:51:55,1022,19,-37,0,0,0,12,56,-1,34.4,36.06,1018.15,0,0
2022-11-02 15:51:55,1022,19,-37,0,0,0,12,56,-1,34.4,36.06,1018.15,0,0
2022-11-02 15:51:55,1022,19,-37,0,0,0,12,56,-1,34.4,36.06,1018.15,0,0
2022-11-02 15:51:55,1022,19,-37,0,0,0,12,56,-1,34.4,36.06,1018.15,0,0
2022-11-02 15:51:55,1022,19,-37,0,0,0,12,56,-1,34.4,36.06,1018.15,0,0
2022-11-02 15:51:55,1022,19,-37,0,0,0,12,56,-1,34.4,36.06,1018.15,0,0
2022-11-02 15:51:55,1022,19,-37,0,0,0,12,56,-1,34.4,36.06,1018.15,0,0
2022-11-02 15:51:55,1022,19,-37,0,0,0,12,56,-1,34.4,36.06,1018.15,0,0
2022-11-02 15:51:55,1013,21,-39,0,0,0,14,57,-3,34.4,36.07,1018.13,0,0
2022-11-02 15:51:55,1013,21,-39,0,0,0,14,57,-3,34.4,36.07,1018.13,0,0
2022-11-02 15:51:55,1013,21,-39,0,0,0,14,57,-3,34.4,36.07,1018.13,0,0
2022-11-02 15:51:55,1013,21,-39,0,0,0,14,57,-3,34.4,36.07,1018.13,0,0
2022-11-02 15:51:55,1013,21,-39,0,0,0,14,57,-3,34.4,36.07,1018.13,0,0
2022-11-02 15:51:55,1013,21,-39,0,0,0,14,57,-3,34.4,36.07,1018.13,0,0
2022-11-02 15:51:55,1013,21,-39,0,0,0,14,57,-3,34.4,36.07,1018.13,0,0
2022-11-02 15:51:55,1013,21,-39,0,0,0,14,57,-3,34.4,36.07,1018.13,0,0
2022-11-02 15:51:55,1013,21,-39,0,0,0,14,57,-3,34.4,36.07,1018.13,0,0
2022-11-02 15:51:55,1013,21,-39,0,0,0,14,57,-3,34.4,36.07,1018.13,0,0
2022-11-02 15:51:55,1013,21,-39,0,0,0,14,57,-3,34.4,36.07,1018.13,0,0
2022-11-02 15:51:55,1016,23,-37,0,0,0,13,54,-3,34.4,36.07,1018.13,0,0
2022-11-02 15:51:55,1016,23,-37,0,0,0,13,54,-3,34.4,36.07,1018.13,0,0
2022-11-02 15:51:55,1016,23,-37,0,0,0,13,54,-3,34.4,36.07,1018.13,0,0
2022-11-02 15:51:55,1016,23,-37,0,0,0,13,54,-3,34.4,36.07,1018.13,0,0
2022-11-02 15:51:55,1016,23,-37,0,0,0,13,54,-3,34.4,36.07,1018.13,0,0
2022-11-02 15:51:55,1016,23,-37,0,0,0,13,54,-3,34.4,36.07,1018.13,0,0
2022-11-02 15:51:55,1016,23,-37,0,0,0,13,54,-3,34.4,36.07,1018.13,0,0
2022-11-02 15:51:55,1016,23,-37,0,0,0,13,54,-3,34.4,36.07,1018.13,0,0
2022-11-02 15:51:55,1016,23,-37,0,0,0,13,54,-3,34.4,36.07,1018.13,0,0
2022-11-02 15:51:55,1016,23,-37,0,0,0,13,54,-3,34.4,36.07,1018.13,0,0
2022-11-02 15:51:55,1016,23,-37,0,0,0,13,54,-3,34.4,36.07,1018.13,0,0
2022-11-02 15:51:55,1016,19,-40,0,0,0,13,56,-6,34.4,36.07,1018.13,0,0
2022-11-02 15:51:55,1016,19,-40,0,0,0,13,56,-6,34.4,36.07,1018.13,0,0
2022-11-02 15:51:55,1016,19,-40,0,0,0,13,56,-6,34.4,36.07,1018.13,0,0
2022-11-02 15:51:55,1016,19,-40,0,0,0,13,56,-6,34.4,36.07,1018.13,0,0
2022-11-02 15:51:55,1016,19,-40,0,0,0,13,56,-6,34.4,36.07,1018.13,0,0
2022-11-02 15:51:55,1016,19,-40,0,0,0,13,56,-6,34.4,36.07,1018.13,0,0
2022-11-02 15:51:55,1016,19,-40,0,0,0,13,56,-6,34.4,36.07,1018.13,0,0
2022-11-02 15:51:55,1016,19,-40,0,0,0,13,56,-6,34.4,36.07,1018.13,0,0
2022-11-02 15:51:55,1016,19,-40,0,0,0,13,56,-6,34.4,36.07,1018.13,0,0
2022-11-02 15:51:55,1016,19,-40,0,0,0,13,56,-6,34.4,36.07,1018.13,0,0
2022-11-02 15:51:55,1016,19,-40,0,0,0,13,56,-6,34.4,36.07,1018.13,0,0
2022-11-02 15:51:55,1018,25,-42,0,0,0,12,56,-1,34.4,36.07,1018.13,0,0
2022-11-02 15:51:55,1018,25,-42,0,0,0,12,56,-1,34.4,36.07,1018.13,0,0
2022-11-02 15:51:55,1018,25,-42,0,0,0,12,56,-1,34.4,36.07,1018.13,0,0
2022-11-02 15:51:55,1018,25,-42,0,0,0,12,56,-1,34.4,36.07,1018.13,0,0
2022-11-02 15:51:55,1018,25,-42,0,0,0,12,56,-1,34.4,36.07,1018.13,0,0
2022-11-02 15:51:55,1018,25,-42,0,0,0,12,56,-1,34.4,36.07,1018.13,0,0
2022-11-02 15:51:55,1018,25,-42,0,0,0,12,56,-1,34.4,36.07,1018.13,0,0
2022-11-02 15:51:55,1018,25,-42,0,0,0,12,56,-1,34.4,36.07,1018.13,0,0
2022-11-02 15:51:55,1018,25,-42,0,0,0,12,56,-1,34.4,36.07,1018.13,0,0
2022-11-02 15:51:55,1018,25,-42,0,0,0,12,56,-1,34.4,36.07,1018.13,0,0
2022-11-02 15:51:55,1018,25,-42,0,0,0,12,56,-1,34.4,36.07,1018.13,0,0
2022-11-02 15:51:55,1016,29,-37,0,0,0,13,55,-3,34.4,36.07,1018.13,0,0
2022-11-02 15:51:55,1016,29,-37,0,0,0,13,55,-3,34.4,36.07,1018.13,0,0
2022-11-02 15:51:55,1016,29,-37,0,0,0,13,55,-3,34.4,36.07,1018.13,0,0
2022-11-02 15:51:55,1016,29,-37,0,0,0,13,55,-3,34.4,36.07,1018.13,0,0
2022-11-02 15:51:55,1016,29,-37,0,0,0,13,55,-3,34.4,36.07,1018.13,0,0
2022-11-02 15:51:55,1016,29,-37,0,0,0,13,55,-3,34.4,36.07,1018.13,0,0
2022-11-02 15:51:55,1016,29,-37,0,0,0,13,55,-3,34.4,36.07,1018.13,0,0
2022-11-02 15:51:55,1016,29,-37,0,0,0,13,55,-3,34.4,36.07,1018.13,0,0
2022-11-02 15:51:55,1016,29,-37,0,0,0,13,55,-3,34.4,36.07,1018.13,0,0
2022-11-02 15:51:55,1016,29,-37,0,0,0,13,55,-3,34.4,36.07,1018.13,0,0
2022-11-02 15:51:55,1016,29,-37,0,0,0,13,55,-3,34.4,36.07,1018.13,0,0
2022-11-02 15:51:55,1026,37,-40,0,0,0,13,54,1,34.4,36.07,1018.13,0,0
2022-11-02 15:51:55,1026,37,-40,0,0,0,13,54,1,34.4,36.07,1018.13,0,0
2022-11-02 15:51:55,1026,37,-40,0,0,0,13,54,1,34.4,36.07,1018.13,0,0
2022-11-02 15:51:55,1026,37,-40,0,0,0,13,54,1,34.4,36.07,1018.13,0,0
2022-11-02 15:51:55,1026,37,-40,0,0,0,13,54,1,34.4,36.07,1018.13,0,0
2022-11-02 15:51:55,1026,37,-40,0,0,0,13,54,1,34.4,36.07,1018.13,0,0
2022-11-02 15:51:55,1026,37,-40,0,0,0,13,54,1,34.4,36.07,1018.13,0,0
2022-11-02 15:51:55,1026,37,-40,0,0,0,13,54,1,34.4,36.07,1018.13,0,0
2022-11-02 15:51:55,1026,37,-40,0,0,0,13,54,1,34.4,36.07,1018.13,0,0
2022-11-02 15:51:55,1026,37,-40,0,0,0,13,54,1,34.4,36.07,1018.13,0,0
2022-11-02 15:51:55,1026,37,-40,0,0,0,13,54,1,34.4,36.07,1018.13,0,0
2022-11-02 15:51:55,1015,31,-48,-1,0,0,13,57,-3,34.4,36.07,1018.13,0,0
2022-11-02 15:51:55,1015,31,-48,-1,0,0,13,57,-3,34.4,36.07,1018.13,0,0
2022-11-02 15:51:55,1015,31,-48,-1,0,0,13,57,-3,34.4,36.07,1018.13,0,0
2022-11-02 15:51:55,1015,31,-48,-1,0,0,13,57,-3,34.4,36.07,1018.13,0,0
2022-11-02 15:51:55,1015,31,-48,-1,0,0,13,57,-3,34.4,36.07,1018.13,0,0
2022-11-02 15:51:55,1015,31,-48,-1,0,0,13,57,-3,34.4,36.07,1018.13,0,0
2022-11-02 15:51:55,1015,31,-48,-1,0,0,13,57,-3,34.4,36.07,1018.13,0,0
2022-11-02 15:51:55,1015,31,-48,-1,0,0,13,57,-3,34.4,36.07,1018.13,0,0
2022-11-02 15:51:55,1015,31,-48,-1,0,0,13,57,-3,34.4,36.07,1018.13,0,0
2022-11-02 15:51:55,1015,31,-48,-1,0,0,13,57,-3,34.4,36.07,1018.13,0,0
2022-11-02 15:51:55,1015,31,-48,-1,0,0,13,57,-3,34.4,36.07,1018.13,0,0
2022-11-02 15:51:55,1018,27,-39,-1,0,0,14,57,-3,34.4,36.07,1018.13,0,0
2022-11-02 15:51:55,1018,27,-39,-1,0,0,14,57,-3,34.4,36.07,1018.13,0,0
2022-11-02 15:51:55,1018,27,-39,-1,0,0,14,57,-3,34.4,36.07,1018.13,0,0
2022-11-02 15:51:55,1018,27,-39,-1,0,0,14,57,-3,34.4,36.07,1018.13,0,0
2022-11-02 15:51:55,1018,27,-39,-1,0,0,14,57,-3,34.4,36.07,1018.13,0,0
2022-11-02 15:51:55,1018,27,-39,-1,0,0,14,57,-3,34.4,36.07,1018.13,0,0
2022-11-02 15:51:55,1018,27,-39,-1,0,0,14,57,-3,34.4,36.07,1018.13,0,0
2022-11-02 15:51:55,1018,27,-39,-1,0,0,14,57,-3,34.4,36.07,1018.13,0,0
2022-11-02 15:51:55,1018,27,-39,-1,0,0,14,57,-3,34.4,36.07,1018.13,0,0
2022-11-02 15:51:55,1018,27,-39,-1,0,0,14,57,-3,34.4,36.07,1018.13,0,0
2022-11-02 15:51:55,1018,27,-39,-1,0,0,14,57,-3,34.4,36.07,1018.13,0,0
2022-11-02 15:51:56,1026,29,-39,0,0,0,12,53,-2,34.4,36.07,1018.13,0,0
2022-11-02 15:51:56,1026,29,-39,0,0,0,12,53,-2,34.4,36.07,1018.13,0,0
2022-11-02 15:51:56,1026,29,-39,0,0,0,12,53,-2,34.4,36.07,1018.13,0,0
2022-11-02 15:51:56,1026,29,-39,0,0,0,12,53,-2,34.4,36.07,1018.13,0,0
2022-11-02 15:51:56,1026,29,-39,0,0,0,12,53,-2,34.4,36.07,1018.13,0,0
2022-11-02 15:51:56,1026,29,-39,0,0,0,12,53,-2,34.4,36.07,1018.13,0,0
2022-11-02 15:51:56,1026,29,-39,0,0,0,12,53,-2,34.4,36.07,1018.13,0,0
2022-11-02 15:51:56,1026,29,-39,0,0,0,12,53,-2,34.4,36.07,1018.13,0,0
2022-11-02 15:51:56,1026,29,-39,0,0,0,12,53,-2,34.4,36.07,1018.13,0,0
2022-11-02 15:51:56,1026,29,-39,0,0,0,12,53,-2,34.4,36.07,1018.13,0,0
2022-11-02 15:51:56,1026,29,-39,0,0,0,12,53,-2,34.4,36.07,1018.13,0,0
2022-11-02 15:51:56,1015,15,-40,-1,0,0,13,57,-6,34.4,36.07,1018.13,0,0
2022-11-02 15:51:56,1015,15,-40,-1,0,0,13,57,-6,34.4,36.07,1018.13,0,0
2022-11-02 15:51:56,1015,15,-40,-1,0,0,13,57,-6,34.4,36.07,1018.13,0,0
2022-11-02 15:51:56,1015,15,-40,-1,0,0,13,57,-6,34.4,36.07,1018.13,0,0
2022-11-02 15:51:56,1015,15,-40,-1,0,0,13,57,-6,34.4,36.07,1018.13,0,0
2022-11-02 15:51:56,1015,15,-40,-1,0,0,13,57,-6,34.4,36.07,1018.13,0,0
2022-11-02 15:51:56,1015,15,-40,-1,0,0,13,57,-6,34.4,36.07,1018.13,0,0
2022-11-02 15:51:56,1015,15,-40,-1,0,0,13,57,-6,34.4,36.07,1018.13,0,0
2022-11-02 15:51:56,1015,15,-40,-1,0,0,13,57,-6,34.4,36.07,1018.13,0,0
2022-11-02 15:51:56,1015,15,-40,-1,0,0,13,57,-6,34.4,36.07,1018.13,0,0
2022-11-02 15:51:56,1015,15,-40,-1,0,0,13,57,-6,34.4,36.07,1018.13,0,0
2022-11-02 15:51:56,1020,27,-39,0,0,0,12,57,-3,34.5,36.06,1018.19,0,0
2022-11-02 15:51:56,1020,27,-39,0,0,0,12,57,-3,34.5,36.06,1018.19,0,0
2022-11-02 15:51:56,1020,27,-39,0,0,0,12,57,-3,34.5,36.06,1018.19,0,0
2022-11-02 15:51:56,1020,27,-39,0,0,0,12,57,-3,34.5,36.06,1018.19,0,0
2022-11-02 15:51:56,1020,27,-39,0,0,0,12,57,-3,34.5,36.06,1018.19,0,0
2022-11-02 15:51:56,1020,27,-39,0,0,0,12,57,-3,34.5,36.06,1018.19,0,0
2022-11-02 15:51:56,1020,27,-39,0,0,0,12,57,-3,34.5,36.06,1018.19,0,0
2022-11-02 15:51:56,1020,27,-39,0,0,0,12,57,-3,34.5,36.06,1018.19,0,0
2022-11-02 15:51:56,1020,27,-39,0,0,0,12,57,-3,34.5,36.06,1018.19,0,0
2022-11-02 15:51:56,1020,27,-39,0,0,0,12,57,-3,34.5,36.06,1018.19,0,0
2022-11-02 15:51:56,1020,27,-39,0,0,0,12,57,-3,34.5,36.06,1018.19,0,0
2022-11-02 15:51:56,1020,33,-39,0,0,0,11,55,-1,34.5,36.06,1018.19,0,0
2022-11-02 15:51:56,1020,33,-39,0,0,0,11,55,-1,34.5,36.06,1018.19,0,0
2022-11-02 15:51:56,1020,33,-39,0,0,0,11,55,-1,34.5,36.06,1018.19,0,0
2022-11-02 15:51:56,1020,33,-39,0,0,0,11,55,-1,34.5,36.06,1018.19,0,0
2022-11-02 15:51:56,1020,33,-39,0,0,0,11,55,-1,34.5,36.06,1018.19,0,0
2022-11-02 15:51:56,1020,33,-39,0,0,0,11,55,-1,34.5,36.06,1018.19,0,0
2022-11-02 15:51:56,1020,33,-39,0,0,0,11,55,-1,34.5,36.06,1018.19,0,0
2022-11-02 15:51:56,1020,33,-39,0,0,0,11,55,-1,34.5,36.06,1018.19,0,0
2022-11-02 15:51:56,1020,33,-39,0,0,0,11,55,-1,34.5,36.06,1018.19,0,0
2022-11-02 15:51:56,1020,33,-39,0,0,0,11,55,-1,34.5,36.06,1018.19,0,0
2022-11-02 15:51:56,1020,33,-39,0,0,0,11,55,-1,34.5,36.06,1018.19,0,0
2022-11-02 15:51:56,1026,35,-42,-1,0,0,14,56,-4,34.5,36.06,1018.19,0,0
2022-11-02 15:51:56,1026,35,-42,-1,0,0,14,56,-4,34.5,36.06,1018.19,0,0
2022-11-02 15:51:56,1026,35,-42,-1,0,0,14,56,-4,34.5,36.06,1018.19,0,0
2022-11-02 15:51:56,1026,35,-42,-1,0,0,14,56,-4,34.5,36.06,1018.19,0,0
2022-11-02 15:51:56,1026,35,-42,-1,0,0,14,56,-4,34.5,36.06,1018.19,0,0
2022-11-02 15:51:56,1026,35,-42,-1,0,0,14,56,-4,34.5,36.06,1018.19,0,0
2022-11-02 15:51:56,1026,35,-42,-1,0,0,14,56,-4,34.5,36.06,1018.19,0,0
2022-11-02 15:51:56,1026,35,-42,-1,0,0,14,56,-4,34.5,36.06,1018.19,0,0
2022-11-02 15:51:56,1026,35,-42,-1,0,0,14,56,-4,34.5,36.06,1018.19,0,0
2022-11-02 15:51:56,1026,35,-42,-1,0,0,14,56,-4,34.5,36.06,1018.19,0,0
2022-11-02 15:51:56,1026,35,-42,-1,0,0,14,56,-4,34.5,36.06,1018.19,0,0
2022-11-02 15:51:56,1016,23,-42,0,0,0,13,57,0,34.5,36.06,1018.19,0,0
2022-11-02 15:51:56,1016,23,-42,0,0,0,13,57,0,34.5,36.06,1018.19,0,0
2022-11-02 15:51:56,1016,23,-42,0,0,0,13,57,0,34.5,36.06,1018.19,0,0
2022-11-02 15:51:56,1016,23,-42,0,0,0,13,57,0,34.5,36.06,1018.19,0,0
2022-11-02 15:51:56,1016,23,-42,0,0,0,13,57,0,34.5,36.06,1018.19,0,0
2022-11-02 15:51:56,1016,23,-42,0,0,0,13,57,0,34.5,36.06,1018.19,0,0
2022-11-02 15:51:56,1016,23,-42,0,0,0,13,57,0,34.5,36.06,1018.19,0,0
2022-11-02 15:51:56,1016,23,-42,0,0,0,13,57,0,34.5,36.06,1018.19,0,0
2022-11-02 15:51:56,1016,23,-42,0,0,0,13,57,0,34.5,36.06,1018.19,0,0
2022-11-02 15:51:56,1016,23,-42,0,0,0,13,57,0,34.5,36.06,1018.19,0,0
2022-11-02 15:51:56,1016,23,-42,0,0,0,13,57,0,34.5,36.06,1018.19,0,0
2022-11-02 15:51:56,1024,33,-42,0,0,0,13,55,-9,34.5,36.06,1018.19,0,0
2022-11-02 15:51:56,1024,33,-42,0,0,0,13,55,-9,34.5,36.06,1018.19,0,0
2022-11-02 15:51:56,1024,33,-42,0,0,0,13,55,-9,34.5,36.06,1018.19,0,0
2022-11-02 15:51:56,1024,33,-42,0,0,0,13,55,-9,34.5,36.06,1018.19,0,0
2022-11-02 15:51:56,1024,33,-42,0,0,0,13,55,-9,34.5,36.06,1018.19,0,0
2022-11-02 15:51:56,1024,33,-42,0,0,0,13,55,-9,34.5,36.06,1018.19,0,0
2022-11-02 15:51:56,1024,33,-42,0,0,0,13,55,-9,34.5,36.06,1018.19,0,0
2022-11-02 15:51:56,1024,33,-42,0,0,0,13,55,-9,34.5,36.06,1018.19,0,0
2022-11-02 15:51:56,1024,33,-42,0,0,0,13,55,-9,34.5,36.06,1018.19,0,0
2022-11-02 15:51:56,1024,33,-42,0,0,0,13,55,-9,34.5,36.06,1018.19,0,0
2022-11-02 15:51:56,1024,33,-42,0,0,0,13,55,-9,34.5,36.06,1018.19,0,0
2022-11-02 15:51:56,1016,19,-48,0,0,0,11,57,-6,34.5,36.06,1018.19,0,0
2022-11-02 15:51:56,1016,19,-48,0,0,0,11,57,-6,34.5,36.06,1018.19,0,0
2022-11-02 15:51:56,1016,19,-48,0,0,0,11,57,-6,34.5,36.06,1018.19,0,0
2022-11-02 15:51:56,1016,19,-48,0,0,0,11,57,-6,34.5,36.06,1018.19,0,0
2022-11-02 15:51:56,1016,19,-48,0,0,0,11,57,-6,34.5,36.06,1018.19,0,0
2022-11-02 15:51:56,1016,19,-48,0,0,0,11,57,-6,34.5,36.06,1018.19,0,0
2022-11-02 15:51:56,1016,19,-48,0,0,0,11,57,-6,34.5,36.06,1018.19,0,0
2022-11-02 15:51:56,1016,19,-48,0,0,0,11,57,-6,34.5,36.06,1018.19,0,0
2022-11-02 15:51:56,1016,19,-48,0,0,0,11,57,-6,34.5,36.06,1018.19,0,0
2022-11-02 15:51:56,1016,19,-48,0,0,0,11,57,-6,34.5,36.06,1018.19,0,0
2022-11-02 15:51:56,1016,19,-48,0,0,0,11,57,-6,34.5,36.06,1018.19,0,0
2022-11-02 15:51:56,1022,27,-52,0,0,0,11,57,-7,34.5,36.06,1018.19,0,0
2022-11-02 15:51:56,1022,27,-52,0,0,0,11,57,-7,34.5,36.06,1018.19,0,0
2022-11-02 15:51:56,1022,27,-52,0,0,0,11,57,-7,34.5,36.06,1018.19,0,0
2022-11-02 15:51:56,1022,27,-52,0,0,0,11,57,-7,34.5,36.06,1018.19,0,0
2022-11-02 15:51:56,1022,27,-52,0,0,0,11,57,-7,34.5,36.06,1018.19,0,0
2022-11-02 15:51:56,1022,27,-52,0,0,0,11,57,-7,34.5,36.06,1018.19,0,0
2022-11-02 15:51:56,1022,27,-52,0,0,0,11,57,-7,34.5,36.06,1018.19,0,0
2022-11-02 15:51:56,1022,27,-52,0,0,0,11,57,-7,34.5,36.06,1018.19,0,0
2022-11-02 15:51:56,1022,27,-52,0,0,0,11,57,-7,34.5,36.06,1018.19,0,0
2022-11-02 15:51:56,1022,27,-52,0,0,0,11,57,-7,34.5,36.06,1018.19,0,0
2022-11-02 15:51:56,1022,27,-52,0,0,0,11,57,-7,34.5,36.06,1018.19,0,0
2022-11-02 15:51:56,1013,15,-48,0,0,0,12,57,-4,34.5,36.06,1018.19,0,0
2022-11-02 15:51:56,1013,15,-48,0,0,0,12,57,-4,34.5,36.06,1018.19,0,0
2022-11-02 15:51:56,1013,15,-48,0,0,0,12,57,-4,34.5,36.06,1018.19,0,0
2022-11-02 15:51:56,1013,15,-48,0,0,0,12,57,-4,34.5,36.06,1018.19,0,0
2022-11-02 15:51:56,1013,15,-48,0,0,0,12,57,-4,34.5,36.06,1018.19,0,0
2022-11-02 15:51:56,1013,15,-48,0,0,0,12,57,-4,34.5,36.06,1018.19,0,0
2022-11-02 15:51:56,1013,15,-48,0,0,0,12,57,-4,34.5,36.06,1018.19,0,0
2022-11-02 15:51:56,1013,15,-48,0,0,0,12,57,-4,34.5,36.06,1018.19,0,0
2022-11-02 15:51:56,1013,15,-48,0,0,0,12,57,-4,34.5,36.06,1018.19,0,0
2022-11-02 15:51:56,1013,15,-48,0,0,0,12,57,-4,34.5,36.06,1018.19,0,0
2022-11-02 15:51:56,1013,15,-48,0,0,0,12,57,-4,34.5,36.06,1018.19,0,0
2022-11-02 15:51:57,1024,27,-37,0,0,0,13,56,-5,34.5,36.06,1018.19,0,0
2022-11-02 15:51:57,1024,27,-37,0,0,0,13,56,-5,34.5,36.06,1018.19,0,0
2022-11-02 15:51:57,1024,27,-37,0,0,0,13,56,-5,34.5,36.06,1018.19,0,0
2022-11-02 15:51:57,1024,27,-37,0,0,0,13,56,-5,34.5,36.06,1018.19,0,0
2022-11-02 15:51:57,1024,27,-37,0,0,0,13,56,-5,34.5,36.06,1018.19,0,0
2022-11-02 15:51:57,1024,27,-37,0,0,0,13,56,-5,34.5,36.06,1018.19,0,0
2022-11-02 15:51:57,1024,27,-37,0,0,0,13,56,-5,34.5,36.06,1018.19,0,0
2022-11-02 15:51:57,1024,27,-37,0,0,0,13,56,-5,34.5,36.06,1018.19,0,0
2022-11-02 15:51:57,1024,27,-37,0,0,0,13,56,-5,34.5,36.06,1018.19,0,0
2022-11-02 15:51:57,1024,27,-37,0,0,0,13,56,-5,34.5,36.06,1018.19,0,0
2022-11-02 15:51:57,1024,27,-37,0,0,0,13,56,-5,34.5,36.06,1018.19,0,0
2022-11-02 15:51:57,1028,27,-40,0,0,0,13,56,-3,34.5,36.06,1018.19,0,0
2022-11-02 15:51:57,1028,27,-40,0,0,0,13,56,-3,34.5,36.06,1018.19,0,0
2022-11-02 15:51:57,1028,27,-40,0,0,0,13,56,-3,34.5,36.06,1018.19,0,0
2022-11-02 15:51:57,1028,27,-40,0,0,0,13,56,-3,34.5,36.06,1018.19,0,0
2022-11-02 15:51:57,1028,27,-40,0,0,0,13,56,-3,34.5,36.06,1018.19,0,0
2022-11-02 15:51:57,1028,27,-40,0,0,0,13,56,-3,34.5,36.06,1018.19,0,0
2022-11-02 15:51:57,1028,27,-40,0,0,0,13,56,-3,34.5,36.06,1018.19,0,0
2022-11-02 15:51:57,1028,27,-40,0,0,0,13,56,-3,34.5,36.06,1018.19,0,0
2022-11-02 15:51:57,1028,27,-40,0,0,0,13,56,-3,34.5,36.06,1018.19,0,0
2022-11-02 15:51:57,1028,27,-40,0,0,0,13,56,-3,34.5,36.06,1018.19,0,0
2022-11-02 15:51:57,1028,27,-40,0,0,0,13,56,-3,34.5,36.06,1018.19,0,0
2022-11-02 15:51:57,1016,23,-44,0,0,0,12,56,-5,34.4,36.06,1018.15,0,0
2022-11-02 15:51:57,1016,23,-44,0,0,0,12,56,-5,34.4,36.06,1018.15,0,0
2022-11-02 15:51:57,1016,23,-44,0,0,0,12,56,-5,34.4,36.06,1018.15,0,0
2022-11-02 15:51:57,1016,23,-44,0,0,0,12,56,-5,34.4,36.06,1018.15,0,0
2022-11-02 15:51:57,1016,23,-44,0,0,0,12,56,-5,34.4,36.06,1018.15,0,0
2022-11-02 15:51:57,1016,23,-44,0,0,0,12,56,-5,34.4,36.06,1018.15,0,0
2022-11-02 15:51:57,1016,23,-44,0,0,0,12,56,-5,34.4,36.06,1018.15,0,0
2022-11-02 15:51:57,1016,23,-44,0,0,0,12,56,-5,34.4,36.06,1018.15,0,0
2022-11-02 15:51:57,1016,23,-44,0,0,0,12,56,-5,34.4,36.06,1018.15,0,0
2022-11-02 15:51:57,1016,23,-44,0,0,0,12,56,-5,34.4,36.06,1018.15,0,0
2022-11-02 15:51:57,1016,23,-44,0,0,0,12,56,-5,34.4,36.06,1018.15,0,0
2022-11-02 15:51:57,1026,25,-40,0,0,0,12,55,-1,34.4,36.06,1018.15,0,0
2022-11-02 15:51:57,1026,25,-40,0,0,0,12,55,-1,34.4,36.06,1018.15,0,0
2022-11-02 15:51:57,1026,25,-40,0,0,0,12,55,-1,34.4,36.06,1018.15,0,0
2022-11-02 15:51:57,1026,25,-40,0,0,0,12,55,-1,34.4,36.06,1018.15,0,0
2022-11-02 15:51:57,1026,25,-40,0,0,0,12,55,-1,34.4,36.06,1018.15,0,0
2022-11-02 15:51:57,1026,25,-40,0,0,0,12,55,-1,34.4,36.06,1018.15,0,0
2022-11-02 15:51:57,1026,25,-40,0,0,0,12,55,-1,34.4,36.06,1018.15,0,0
2022-11-02 15:51:57,1026,25,-40,0,0,0,12,55,-1,34.4,36.06,1018.15,0,0
2022-11-02 15:51:57,1026,25,-40,0,0,0,12,55,-1,34.4,36.06,1018.15,0,0
2022-11-02 15:51:57,1026,25,-40,0,0,0,12,55,-1,34.4,36.06,1018.15,0,0
2022-11-02 15:51:57,1026,25,-40,0,0,0,12,55,-1,34.4,36.06,1018.15,0,0
2022-11-02 15:51:57,1024,25,-42,0,0,0,14,56,-4,34.4,36.06,1018.15,0,0
2022-11-02 15:51:57,1024,25,-42,0,0,0,14,56,-4,34.4,36.06,1018.15,0,0
2022-11-02 15:51:57,1024,25,-42,0,0,0,14,56,-4,34.4,36.06,1018.15,0,0
2022-11-02 15:51:57,1024,25,-42,0,0,0,14,56,-4,34.4,36.06,1018.15,0,0
2022-11-02 15:51:57,1024,25,-42,0,0,0,14,56,-4,34.4,36.06,1018.15,0,0
2022-11-02 15:51:57,1024,25,-42,0,0,0,14,56,-4,34.4,36.06,1018.15,0,0
2022-11-02 15:51:57,1024,25,-42,0,0,0,14,56,-4,34.4,36.06,1018.15,0,0
2022-11-02 15:51:57,1024,25,-42,0,0,0,14,56,-4,34.4,36.06,1018.15,0,0
2022-11-02 15:51:57,1024,25,-42,0,0,0,14,56,-4,34.4,36.06,1018.15,0,0
2022-11-02 15:51:57,1024,25,-42,0,0,0,14,56,-4,34.4,36.06,1018.15,0,0
2022-11-02 15:51:57,1024,25,-42,0,0,0,14,56,-4,34.4,36.06,1018.15,0,0
2022-11-02 15:51:57,1022,31,-42,0,0,0,11,58,-4,34.4,36.06,1018.15,0,0
2022-11-02 15:51:57,1022,31,-42,0,0,0,11,58,-4,34.4,36.06,1018.15,0,0
2022-11-02 15:51:57,1022,31,-42,0,0,0,11,58,-4,34.4,36.06,1018.15,0,0
2022-11-02 15:51:57,1022,31,-42,0,0,0,11,58,-4,34.4,36.06,1018.15,0,0
2022-11-02 15:51:57,1022,31,-42,0,0,0,11,58,-4,34.4,36.06,1018.15,0,0
2022-11-02 15:51:57,1022,31,-42,0,0,0,11,58,-4,34.4,36.06,1018.15,0,0
2022-11-02 15:51:57,1022,31,-42,0,0,0,11,58,-4,34.4,36.06,1018.15,0,0
2022-11-02 15:51:57,1022,31,-42,0,0,0,11,58,-4,34.4,36.06,1018.15,0,0
2022-11-02 15:51:57,1022,31,-42,0,0,0,11,58,-4,34.4,36.06,1018.15,0,0
2022-11-02 15:51:57,1022,31,-42,0,0,0,11,58,-4,34.4,36.06,1018.15,0,0
2022-11-02 15:51:57,1022,31,-42,0,0,0,11,58,-4,34.4,36.06,1018.15,0,0
2022-11-02 15:51:57,1024,23,-42,0,0,0,14,55,-3,34.4,36.06,1018.15,0,0
2022-11-02 15:51:57,1024,23,-42,0,0,0,14,55,-3,34.4,36.06,1018.15,0,0
2022-11-02 15:51:57,1024,23,-42,0,0,0,14,55,-3,34.4,36.06,1018.15,0,0
2022-11-02 15:51:57,1024,23,-42,0,0,0,14,55,-3,34.4,36.06,1018.15,0,0
2022-11-02 15:51:57,1024,23,-42,0,0,0,14,55,-3,34.4,36.06,1018.15,0,0
2022-11-02 15:51:57,1024,23,-42,0,0,0,14,55,-3,34.4,36.06,1018.15,0,0
2022-11-02 15:51:57,1024,23,-42,0,0,0,14,55,-3,34.4,36.06,1018.15,0,0
2022-11-02 15:51:57,1024,23,-42,0,0,0,14,55,-3,34.4,36.06,1018.15,0,0
2022-11-02 15:51:57,1024,23,-42,0,0,0,14,55,-3,34.4,36.06,1018.15,0,0
2022-11-02 15:51:57,1024,23,-42,0,0,0,14,55,-3,34.4,36.06,1018.15,0,0
2022-11-02 15:51:57,1024,23,-42,0,0,0,14,55,-3,34.4,36.06,1018.15,0,0
2022-11-02 15:51:57,1018,31,-56,0,0,0,11,56,-5,34.4,36.06,1018.15,0,0
2022-11-02 15:51:57,1018,31,-56,0,0,0,11,56,-5,34.4,36.06,1018.15,0,0
2022-11-02 15:51:57,1018,31,-56,0,0,0,11,56,-5,34.4,36.06,1018.15,0,0
2022-11-02 15:51:57,1018,31,-56,0,0,0,11,56,-5,34.4,36.06,1018.15,0,0
2022-11-02 15:51:57,1018,31,-56,0,0,0,11,56,-5,34.4,36.06,1018.15,0,0
2022-11-02 15:51:57,1018,31,-56,0,0,0,11,56,-5,34.4,36.06,1018.15,0,0
2022-11-02 15:51:57,1018,31,-56,0,0,0,11,56,-5,34.4,36.06,1018.15,0,0
2022-11-02 15:51:57,1018,31,-56,0,0,0,11,56,-5,34.4,36.06,1018.15,0,0
2022-11-02 15:51:57,1018,31,-56,0,0,0,11,56,-5,34.4,36.06,1018.15,0,0
2022-11-02 15:51:57,1018,31,-56,0,0,0,11,56,-5,34.4,36.06,1018.15,0,0
2022-11-02 15:51:57,1018,31,-56,0,0,0,11,56,-5,34.4,36.06,1018.15,0,0
