Time,Ax,Ay,Az,Gx,Gy,Gz,Mx,My,Mz,Temp,Humidity,Pressure,Mic,Light
2022-11-02 15:54:02,1022,46,-134,12,0,0,19,39,4,34.4,35.89,1018.15,0,0
2022-11-02 15:54:02,1022,46,-134,12,0,0,19,39,4,34.4,35.89,1018.15,0,0
2022-11-02 15:54:02,1022,46,-134,12,0,0,19,39,4,34.4,35.89,1018.15,0,0
2022-11-02 15:54:02,1022,46,-134,12,0,0,19,39,4,34.4,35.89,1018.15,0,0
2022-11-02 15:54:02,1022,46,-134,12,0,0,19,39,4,34.4,35.89,1018.15,0,0
2022-11-02 15:54:02,1022,46,-134,12,0,0,19,39,4,34.4,35.89,1018.15,0,0
2022-11-02 15:54:02,1022,46,-134,12,0,0,19,39,4,34.4,35.89,1018.15,0,0
2022-11-02 15:54:02,1022,46,-134,12,0,0,19,39,4,34.4,35.89,1018.15,0,0
2022-11-02 15:54:02,1022,46,-134,12,0,0,19,39,4,34.4,35.89,1018.15,0,0
2022-11-02 15:54:02,1022,46,-134,12,0,0,19,39,4,34.4,35.89,1018.15,0,0
2022-11-02 15:54:02,1022,46,-134,12,0,0,19,39,4,34.4,35.89,1018.15,0,0
2022-11-02 15:54:02,1022,46,-134,12,0,0,19,39,4,34.4,35.89,1018.15,0,0
2022-11-02 15:54:02,1026,-7,-134,7,-2,0,21,40,0,34.4,35.89,1018.15,0,0
2022-11-02 15:54:02,1026,-7,-134,7,-2,0,21,40,0,34.4,35.89,1018.15,0,0
2022-11-02 15:54:02,1026,-7,-134,7,-2,0,21,40,0,34.4,35.89,1018.15,0,0
2022-11-02 15:54:02,1026,-7,-134,7,-2,0,21,40,0,34.4,35.89,1018.15,0,0
2022-11-02 15:54:02,1026,-7,-134,7,-2,0,21,40,0,34.4,35.89,1018.15,0,0
2022-11-02 15:54:02,1026,-7,-134,7,-2,0,21,40,0,34.4,35.89,1018.15,0,0
2022-11-02 15:54:02,1026,-7,-134,7,-2,0,21,40,0,34.4,35.89,1018.15,0,0
2022-11-02 15:54:02,1026,-7,-134,7,-2,0,21,40,0,34.4,35.89,1018.15,0,0
2022-11-02 15:54:02,1026,-7,-134,7,-2,0,21,40,0,34.4,35.89,1018.15,0,0
2022-11-02 15:54:02,1026,-7,-134,7,-2,0,21,40,0,34.4,35.89,1018.15,0,0
2022-11-02 15:54:02,1026,-7,-134,7,-2,0,21,40,0,34.4,35.89,1018.15,0,0
2022-11-02 15:54:02,1026,-7,-134,7,-2,0,21,40,0,34.4,35.89,1018.15,0,0
2022-11-02 15:54:03,991,23,-132,3,0,0,19,39,2,34.4,35.89,1018.15,0,0
2022-11-02 15:54:03,991,23,-132,3,0,0,19,39,2,34.4,35.89,1018.15,0,0
2022-11-02 15:54:03,991,23,-132,3,0,0,19,39,2,34.4,35.89,1018.15,0,0
2022-11-02 15:54:03,991,23,-132,3,0,0,19,39,2,34.4,35.89,1018.15,0,0
2022-11-02 15:54:03,991,23,-132,3,0,0,19,39,2,34.4,35.89,1018.15,0,0
2022-11-02 15:54:03,991,23,-132,3,0,0,19,39,2,34.4,35.89,1018.15,0,0
2022-11-02 15:54:03,991,23,-132,3,0,0,19,39,2,34.4,35.89,1018.15,0,0
2022-11-02 15:54:03,991,23,-132,3,0,0,19,39,2,34.4,35.89,1018.15,0,0
2022-11-02 15:54:03,991,23,-132,3,0,0,19,39,2,34.4,35.89,1018.15,0,0
2022-11-02 15:54:03,991,23,-132,3,0,0,19,39,2,34.4,35.89,1018.15,0,0
2022-11-02 15:54:03,991,23,-132,3,0,0,19,39,2,34.4,35.89,1018.15,0,0
2022-11-02 15:54:03,991,23,-132,3,0,0,19,39,2,34.4,35.89,1018.15,0,0
2022-11-02 15:54:03,1024,17,-81,0,4,1,18,35,-3,34.4,35.89,1018.15,0,0
2022-11-02 15:54:03,1024,17,-81,0,4,1,18,35,-3,34.4,35.89,1018.15,0,0
2022-11-02 15:54:03,1024,17,-81,0,4,1,18,35,-3,34.4,35.89,1018.15,0,0
2022-11-02 15:54:03,1024,17,-81,0,4,1,18,35,-3,34.4,35.89,1018.15,0,0
2022-11-02 15:54:03,1024,17,-81,0,4,1,18,35,-3,34.4,35.89,1018.15,0,0
2022-11-02 15:54:03,1024,17,-81,0,4,1,18,35,-3,34.4,35.89,1018.15,0,0
2022-11-02 15:54:03,1024,17,-81,0,4,1,18,35,-3,34.4,35.89,1018.15,0,0
2022-11-02 15:54:03,1024,17,-81,0,4,1,18,35,-3,34.4,35.89,1018.15,0,0
2022-11-02 15:54:03,1024,17,-81,0,4,1,18,35,-3,34.4,35.89,1018.15,0,0
2022-11-02 15:54:03,1024,17,-81,0,4,1,18,35,-3,34.4,35.89,1018.15,0,0
2022-11-02 15:54:03,1024,17,-81,0,4,1,18,35,-3,34.4,35.89,1018.15,0,0
2022-11-02 15:54:03,1024,17,-81,0,4,1,18,35,-3,34.4,35.89,1018.15,0,0
2022-11-02 15:54:03,1022,46,-68,0,5,4,19,35,0,34.3,35.91,1018.23,0,0
2022-11-02 15:54:03,1022,46,-68,0,5,4,19,35,0,34.3,35.91,1018.23,0,0
2022-11-02 15:54:03,1022,46,-68,0,5,4,19,35,0,34.3,35.91,1018.23,0,0
2022-11-02 15:54:03,1022,46,-68,0,5,4,19,35,0,34.3,35.91,1018.23,0,0
2022-11-02 15:54:03,1022,46,-68,0,5,4,19,35,0,34.3,35.91,1018.23,0,0
2022-11-02 15:54:03,1022,46,-68,0,5,4,19,35,0,34.3,35.91,1018.23,0,0
2022-11-02 15:54:03,1022,46,-68,0,5,4,19,35,0,34.3,35.91,1018.23,0,0
2022-11-02 15:54:03,1022,46,-68,0,5,4,19,35,0,34.3,35.91,1018.23,0,0
2022-11-02 15:54:03,1022,46,-68,0,5,4,19,35,0,34.3,35.91,1018.23,0,0
2022-11-02 15:54:03,1022,46,-68,0,5,4,19,35,0,34.3,35.91,1018.23,0,0
2022-11-02 15:54:03,1022,46,-68,0,5,4,19,35,0,34.3,35.91,1018.23,0,0
2022-11-02 15:54:03,1022,46,-68,0,5,4,19,35,0,34.3,35.91,1018.23,0,0
2022-11-02 15:54:03,1016,56,-66,0,6,5,21,39,-1,34.3,35.91,1018.23,0,0
2022-11-02 15:54:03,1016,56,-66,0,6,5,21,39,-1,34.3,35.91,1018.23,0,0
2022-11-02 15:54:03,1016,56,-66,0,6,5,21,39,-1,34.3,35.91,1018.23,0,0
2022-11-02 15:54:03,1016,56,-66,0,6,5,21,39,-1,34.3,35.91,1018.23,0,0
2022-11-02 15:54:03,1016,56,-66,0,6,5,21,39,-1,34.3,35.91,1018.23,0,0
2022-11-02 15:54:03,1016,56,-66,0,6,5,21,39,-1,34.3,35.91,1018.23,0,0
2022-11-02 15:54:03,1016,56,-66,0,6,5,21,39,-1,34.3,35.91,1018.23,0,0
2022-11-02 15:54:03,1016,56,-66,0,6,5,21,39,-1,34.3,35.91,1018.23,0,0
2022-11-02 15:54:03,1016,56,-66,0,6,5,21,39,-1,34.3,35.91,1018.23,0,0
2022-11-02 15:54:03,1016,56,-66,0,6,5,21,39,-1,34.3,35.91,1018.23,0,0
2022-11-02 15:54:03,1016,56,-66,0,6,5,21,39,-1,34.3,35.91,1018.23,0,0
2022-11-02 15:54:03,1016,56,-66,0,6,5,21,39,-1,34.3,35.91,1018.23,0,0
2022-11-02 15:54:03,1024,70,-48,0,2,3,22,33,3,34.3,35.91,1018.23,0,0
2022-11-02 15:54:03,1024,70,-48,0,2,3,22,33,3,34.3,35.91,1018.23,0,0
2022-11-02 15:54:03,1024,70,-48,0,2,3,22,33,3,34.3,35.91,1018.23,0,0
2022-11-02 15:54:03,1024,70,-48,0,2,3,22,33,3,34.3,35.91,1018.23,0,0
2022-11-02 15:54:03,1024,70,-48,0,2,3,22,33,3,34.3,35.91,1018.23,0,0
2022-11-02 15:54:03,1024,70,-48,0,2,3,22,33,3,34.3,35.91,1018.23,0,0
2022-11-02 15:54:03,1024,70,-48,0,2,3,22,33,3,34.3,35.91,1018.23,0,0
2022-11-02 15:54:03,1024,70,-48,0,2,3,22,33,3,34.3,35.91,1018.23,0,0
2022-11-02 15:54:03,1024,70,-48,0,2,3,22,33,3,34.3,35.91,1018.23,0,0
2022-11-02 15:54:03,1024,70,-48,0,2,3,22,33,3,34.3,35.91,1018.23,0,0
2022-11-02 15:54:03,1024,70,-48,0,2,3,22,33,3,34.3,35.91,1018.23,0,0
2022-11-02 15:54:03,1024,70,-48,0,2,3,22,33,3,34.3,35.91,1018.23,0,0
2022-11-02 15:54:03,1020,62,-48,-3,-1,0,20,34,-1,34.3,35.91,1018.23,0,0
2022-11-02 15:54:03,1020,62,-48,-3,-1,0,20,34,-1,34.3,35.91,1018.23,0,0
2022-11-02 15:54:03,1020,62,-48,-3,-1,0,20,34,-1,34.3,35.91,1018.23,0,0
2022-11-02 15:54:03,1020,62,-48,-3,-1,0,20,34,-1,34.3,35.91,1018.23,0,0
2022-11-02 15:54:03,1020,62,-48,-3,-1,0,20,34,-1,34.3,35.91,1018.23,0,0
2022-11-02 15:54:03,1020,62,-48,-3,-1,0,20,34,-1,34.3,35.91,1018.23,0,0
2022-11-02 15:54:03,1020,62,-48,-3,-1,0,20,34,-1,34.3,35.91,1018.23,0,0
2022-11-02 15:54:03,1020,62,-48,-3,-1,0,20,34,-1,34.3,35.91,1018.23,0,0
2022-11-02 15:54:03,1020,62,-48,-3,-1,0,20,34,-1,34.3,35.91,1018.23,0,0
2022-11-02 15:54:03,1020,62,-48,-3,-1,0,20,34,-1,34.3,35.91,1018.23,0,0
2022-11-02 15:54:03,1020,62,-48,-3,-1,0,20,34,-1,34.3,35.91,1018.23,0,0
2022-11-02 15:54:03,1020,62,-48,-3,-1,0,20,34,-1,34.3,35.91,1018.23,0,0
2022-11-02 15:54:03,1013,70,-52,-4,-3,-1,21,35,-3,34.3,35.91,1018.23,0,0
2022-11-02 15:54:03,1013,70,-52,-4,-3,-1,21,35,-3,34.3,35.91,1018.23,0,0
2022-11-02 15:54:03,1013,70,-52,-4,-3,-1,21,35,-3,34.3,35.91,1018.23,0,0
2022-11-02 15:54:03,1013,70,-52,-4,-3,-1,21,35,-3,34.3,35.91,1018.23,0,0
2022-11-02 15:54:03,1013,70,-52,-4,-3,-1,21,35,-3,34.3,35.91,1018.23,0,0
2022-11-02 15:54:03,1013,70,-52,-4,-3,-1,21,35,-3,34.3,35.91,1018.23,0,0
2022-11-02 15:54:03,1013,70,-52,-4,-3,-1,21,35,-3,34.3,35.91,1018.23,0,0
2022-11-02 15:54:03,1013,70,-52,-4,-3,-1,21,35,-3,34.3,35.91,1018.23,0,0
2022-11-02 15:54:03,1013,70,-52,-4,-3,-1,21,35,-3,34.3,35.91,1018.23,0,0
2022-11-02 15:54:03,1013,70,-52,-4,-3,-1,21,35,-3,34.3,35.91,1018.23,0,0
2022-11-02 15:54:03,1013,70,-52,-4,-3,-1,21,35,-3,34.3,35.91,1018.23,0,0
2022-11-02 15:54:03,1013,70,-52,-4,-3,-1,21,35,-3,34.3,35.91,1018.23,0,0
2022-11-02 15:54:03,1022,66,-46,-4,0,-1,23,35,-6,34.3,35.91,1018.23,0,0
2022-11-02 15:54:03,1022,66,-46,-4,0,-1,23,35,-6,34.3,35.91,1018.23,0,0
2022-11-02 15:54:03,1022,66,-46,-4,0,-1,23,35,-6,34.3,35.91,1018.23,0,0
2022-11-02 15:54:03,1022,66,-46,-4,0,-1,23,35,-6,34.3,35.91,1018.23,0,0
2022-11-02 15:54:03,1022,66,-46,-4,0,-1,23,35,-6,34.3,35.91,1018.23,0,0
2022-11-02 15:54:03,1022,66,-46,-4,0,-1,23,35,-6,34.3,35.91,1018.23,0,0
2022-11-02 15:54:03,1022,66,-46,-4,0,-1,23,35,-6,34.3,35.91,1018.23,0,0
2022-11-02 15:54:03,1022,66,-46,-4,0,-1,23,35,-6,34.3,35.91,1018.23,0,0
2022-11-02 15:54:03,1022,66,-46,-4,0,-1,23,35,-6,34.3,35.91,1018.23,0,0
2022-11-02 15:54:03,1022,66,-46,-4,0,-1,23,35,-6,34.3,35.91,1018.23,0,0
2022-11-02 15:54:03,1022,66,-46,-4,0,-1,23,35,-6,34.3,35.91,1018.23,0,0
2022-11-02 15:54:03,1022,66,-46,-4,0,-1,23,35,-6,34.3,35.91,1018.23,0,0
2022-11-02 15:54:03,1020,87,-60,-3,0,0,21,36,-6,34.3,35.91,1018.23,0,0
2022-11-02 15:54:03,1020,87,-60,-3,0,0,21,36,-6,34.3,35.91,1018.23,0,0
2022-11-02 15:54:03,1020,87,-60,-3,0,0,21,36,-6,34.3,35.91,1018.23,0,0
2022-11-02 15:54:03,1020,87,-60,-3,0,0,21,36,-6,34.3,35.91,1018.23,0,0
2022-11-02 15:54:03,1020,87,-60,-3,0,0,21,36,-6,34.3,35.91,1018.23,0,0
2022-11-02 15:54:03,1020,87,-60,-3,0,0,21,36,-6,34.3,35.91,1018.23,0,0
2022-11-02 15:54:03,1020,87,-60,-3,0,0,21,36,-6,34.3,35.91,1018.23,0,0
2022-11-02 15:54:03,1020,87,-60,-3,0,0,21,36,-6,34.3,35.91,1018.23,0,0
2022-11-02 15:54:03,1020,87,-60,-3,0,0,21,36,-6,34.3,35.91,1018.23,0,0
2022-11-02 15:54:03,1020,87,-60,-3,0,0,21,36,-6,34.3,35.91,1018.23,0,0
2022-11-02 15:54:03,1020,87,-60,-3,0,0,21,36,-6,34.3,35.91,1018.23,0,0
2022-11-02 15:54:03,1020,87,-60,-3,0,0,21,36,-6,34.3,35.91,1018.23,0,0
2022-11-02 15:54:03,1016,70,-48,-1,0,-1,20,36,-1,34.3,35.91,1018.23,0,0
2022-11-02 15:54:03,1016,70,-48,-1,0,-1,20,36,-1,34.3,35.91,1018.23,0,0
2022-11-02 15:54:03,1016,70,-48,-1,0,-1,20,36,-1,34.3,35.91,1018.23,0,0
2022-11-02 15:54:03,1016,70,-48,-1,0,-1,20,36,-1,34.3,35.91,1018.23,0,0
2022-11-02 15:54:03,1016,70,-48,-1,0,-1,20,36,-1,34.3,35.91,1018.23,0,0
2022-11-02 15:54:03,1016,70,-48,-1,0,-1,20,36,-1,34.3,35.91,1018.23,0,0
2022-11-02 15:54:03,1016,70,-48,-1,0,-1,20,36,-1,34.3,35.91,1018.23,0,0
2022-11-02 15:54:03,1016,70,-48,-1,0,-1,20,36,-1,34.3,35.91,1018.23,0,0
2022-11-02 15:54:03,1016,70,-48,-1,0,-1,20,36,-1,34.3,35.91,1018.23,0,0
2022-11-02 15:54:03,1016,70,-48,-1,0,-1,20,36,-1,34.3,35.91,1018.23,0,0
2022-11-02 15:54:03,1016,70,-48,-1,0,-1,20,36,-1,34.3,35.91,1018.23,0,0
2022-11-02 15:54:03,1016,70,-48,-1,0,-1,20,36,-1,34.3,35.91,1018.23,0,0
2022-11-02 15:54:04,1013,64,-42,1,1,0,22,37,0,34.3,35.91,1018.23,0,0
2022-11-02 15:54:04,1013,64,-42,1,1,0,22,37,0,34.3,35.91,1018.23,0,0
2022-11-02 15:54:04,1013,64,-42,1,1,0,22,37,0,34.3,35.91,1018.23,0,0
2022-11-02 15:54:04,1013,64,-42,1,1,0,22,37,0,34.3,35.91,1018.23,0,0
2022-11-02 15:54:04,1013,64,-42,1,1,0,22,37,0,34.3,35.91,1018.23,0,0
2022-11-02 15:54:04,1013,64,-42,1,1,0,22,37,0,34.3,35.91,1018.23,0,0
2022-11-02 15:54:04,1013,64,-42,1,1,0,22,37,0,34.3,35.91,1018.23,0,0
2022-11-02 15:54:04,1013,64,-42,1,1,0,22,37,0,34.3,35.91,1018.23,0,0
2022-11-02 15:54:04,1013,64,-42,1,1,0,22,37,0,34.3,35.91,1018.23,0,0
2022-11-02 15:54:04,1013,64,-42,1,1,0,22,37,0,34.3,35.91,1018.23,0,0
2022-11-02 15:54:04,1013,64,-42,1,1,0,22,37,0,34.3,35.91,1018.23,0,0
2022-11-02 15:54:04,1013,64,-42,1,1,0,22,37,0,34.3,35.91,1018.23,0,0
2022-11-02 15:54:04,1020,70,-42,0,0,-1,20,33,5,34.3,35.91,1018.23,0,0
2022-11-02 15:54:04,1020,70,-42,0,0,-1,20,33,5,34.3,35.91,1018.23,0,0
2022-11-02 15:54:04,1020,70,-42,0,0,-1,20,33,5,34.3,35.91,1018.23,0,0
2022-11-02 15:54:04,1020,70,-42,0,0,-1,20,33,5,34.3,35.91,1018.23,0,0
2022-11-02 15:54:04,1020,70,-42,0,0,-1,20,33,5,34.3,35.91,1018.23,0,0
2022-11-02 15:54:04,1020,70,-42,0,0,-1,20,33,5,34.3,35.91,1018.23,0,0
2022-11-02 15:54:04,1020,70,-42,0,0,-1,20,33,5,34.3,35.91,1018.23,0,0
2022-11-02 15:54:04,1020,70,-42,0,0,-1,20,33,5,34.3,35.91,1018.23,0,0
2022-11-02 15:54:04,1020,70,-42,0,0,-1,20,33,5,34.3,35.91,1018.23,0,0
2022-11-02 15:54:04,1020,70,-42,0,0,-1,20,33,5,34.3,35.91,1018.23,0,0
2022-11-02 15:54:04,1020,70,-42,0,0,-1,20,33,5,34.3,35.91,1018.23,0,0
2022-11-02 15:54:04,1020,70,-42,0,0,-1,20,33,5,34.3,35.91,1018.23,0,0
2022-11-02 15:54:04,1018,62,-60,1,0,-1,21,38,2,34.3,35.89,1018.14,0,0
2022-11-02 15:54:04,1018,62,-60,1,0,-1,21,38,2,34.3,35.89,1018.14,0,0
2022-11-02 15:54:04,1018,62,-60,1,0,-1,21,38,2,34.3,35.89,1018.14,0,0
2022-11-02 15:54:04,1018,62,-60,1,0,-1,21,38,2,34.3,35.89,1018.14,0,0
2022-11-02 15:54:04,1018,62,-60,1,0,-1,21,38,2,34.3,35.89,1018.14,0,0
2022-11-02 15:54:04,1018,62,-60,1,0,-1,21,38,2,34.3,35.89,1018.14,0,0
2022-11-02 15:54:04,1018,62,-60,1,0,-1,21,38,2,34.3,35.89,1018.14,0,0
2022-11-02 15:54:04,1018,62,-60,1,0,-1,21,38,2,34.3,35.89,1018.14,0,0
2022-11-02 15:54:04,1018,62,-60,1,0,-1,21,38,2,34.3,35.89,1018.14,0,0
2022-11-02 15:54:04,1018,62,-60,1,0,-1,21,38,2,34.3,35.89,1018.14,0,0
2022-11-02 15:54:04,1018,62,-60,1,0,-1,21,38,2,34.3,35.89,1018.14,0,0
2022-11-02 15:54:04,1018,62,-60,1,0,-1,21,38,2,34.3,35.89,1018.14,0,0
2022-11-02 15:54:04,1013,62,-64,2,0,0,19,38,-1,34.3,35.89,1018.14,0,0
2022-11-02 15:54:04,1013,62,-64,2,0,0,19,38,-1,34.3,35.89,1018.14,0,0
2022-11-02 15:54:04,1013,62,-64,2,0,0,19,38,-1,34.3,35.89,1018.14,0,0
2022-11-02 15:54:04,1013,62,-64,2,0,0,19,38,-1,34.3,35.89,1018.14,0,0
2022-11-02 15:54:04,1013,62,-64,2,0,0,19,38,-1,34.3,35.89,1018.14,0,0
2022-11-02 15:54:04,1013,62,-64,2,0,0,19,38,-1,34.3,35.89,1018.14,0,0
2022-11-02 15:54:04,1013,62,-64,2,0,0,19,38,-1,34.3,35.89,1018.14,0,0
2022-11-02 15:54:04,1013,62,-64,2,0,0,19,38,-1,34.3,35.89,1018.14,0,0
2022-11-02 15:54:04,1013,62,-64,2,0,0,19,38,-1,34.3,35.89,1018.14,0,0
2022-11-02 15:54:04,1013,62,-64,2,0,0,19,38,-1,34.3,35.89,1018.14,0,0
2022-11-02 15:54:04,1013,62,-64,2,0,0,19,38,-1,34.3,35.89,1018.14,0,0
2022-11-02 15:54:04,1013,62,-64,2,0,0,19,38,-1,34.3,35.89,1018.14,0,0
2022-11-02 15:54:04,1024,66,-60,2,0,0,22,38,0,34.3,35.89,1018.14,0,0
2022-11-02 15:54:04,1024,66,-60,2,0,0,22,38,0,34.3,35.89,1018.14,0,0
2022-11-02 15:54:04,1024,66,-60,2,0,0,22,38,0,34.3,35.89,1018.14,0,0
2022-11-02 15:54:04,1024,66,-60,2,0,0,22,38,0,34.3,35.89,1018.14,0,0
2022-11-02 15:54:04,1024,66,-60,2,0,0,22,38,0,34.3,35.89,1018.14,0,0
2022-11-02 15:54:04,1024,66,-60,2,0,0,22,38,0,34.3,35.89,1018.14,0,0
2022-11-02 15:54:04,1024,66,-60,2,0,0,22,38,0,34.3,35.89,1018.14,0,0
2022-11-02 15:54:04,1024,66,-60,2,0,0,22,38,0,34.3,35.89,1018.14,0,0
2022-11-02 15:54:04,1024,66,-60,2,0,0,22,38,0,34.3,35.89,1018.14,0,0
2022-11-02 15:54:04,1024,66,-60,2,0,0,22,38,0,34.3,35.89,1018.14,0,0
2022-11-02 15:54:04,1024,66,-60,2,0,0,22,38,0,34.3,35.89,1018.14,0,0
2022-11-02 15:54:04,1024,66,-60,2,0,0,22,38,0,34.3,35.89,1018.14,0,0
2022-11-02 15:54:04,1018,80,-72,0,-2,-1,21,36,-1,34.3,35.89,1018.14,0,0
2022-11-02 15:54:04,1018,80,-72,0,-2,-1,21,36,-1,34.3,35.89,1018.14,0,0
2022-11-02 15:54:04,1018,80,-72,0,-2,-1,21,36,-1,34.3,35.89,1018.14,0,0
2022-11-02 15:54:04,1018,80,-72,0,-2,-1,21,36,-1,34.3,35.89,1018.14,0,0
2022-11-02 15:54:04,1018,80,-72,0,-2,-1,21,36,-1,34.3,35.89,1018.14,0,0
2022-11-02 15:54:04,1018,80,-72,0,-2,-1,21,36,-1,34.3,35.89,1018.14,0,0
2022-11-02 15:54:04,1018,80,-72,0,-2,-1,21,36,-1,34.3,35.89,1018.14,0,0
2022-11-02 15:54:04,1018,80,-72,0,-2,-1,21,36,-1,34.3,35.89,1018.14,0,0
2022-11-02 15:54:04,1018,80,-72,0,-2,-1,21,36,-1,34.3,35.89,1018.14,0,0
2022-11-02 15:54:04,1018,80,-72,0,-2,-1,21,36,-1,34.3,35.89,1018.14,0,0
2022-11-02 15:54:04,1018,80,-72,0,-2,-1,21,36,-1,34.3,35.89,1018.14,0,0
2022-11-02 15:54:04,1018,80,-72,0,-2,-1,21,36,-1,34.3,35.89,1018.14,0,0
2022-11-02 15:54:04,1013,80,-89,0,-2,-1,21,35,0,34.3,35.89,1018.14,0,0
2022-11-02 15:54:04,1013,80,-89,0,-2,-1,21,35,0,34.3,35.89,1018.14,0,0
2022-11-02 15:54:04,1013,80,-89,0,-2,-1,21,35,0,34.3,35.89,1018.14,0,0
2022-11-02 15:54:04,1013,80,-89,0,-2,-1,21,35,0,34.3,35.89,1018.14,0,0
2022-11-02 15:54:04,1013,80,-89,0,-2,-1,21,35,0,34.3,35.89,1018.14,0,0
2022-11-02 15:54:04,1013,80,-89,0,-2,-1,21,35,0,34.3,35.89,1018.14,0,0
2022-11-02 15:54:04,1013,80,-89,0,-2,-1,21,35,0,34.3,35.89,1018.14,0,0
2022-11-02 15:54:04,1013,80,-89,0,-2,-1,21,35,0,34.3,35.89,1018.14,0,0
2022-11-02 15:54:04,1013,80,-89,0,-2,-1,21,35,0,34.3,35.89,1018.14,0,0
2022-11-02 15:54:04,1013,80,-89,0,-2,-1,21,35,0,34.3,35.89,1018.14,0,0
2022-11-02 15:54:04,1013,80,-89,0,-2,-1,21,35,0,34.3,35.89,1018.14,0,0
2022-11-02 15:54:04,1013,80,-89,0,-2,-1,21,35,0,34.3,35.89,1018.14,0,0
2022-11-02 15:54:04,1016,76,-89,0,-2,-1,19,37,-1,34.3,35.89,1018.14,0,0
2022-11-02 15:54:04,1016,76,-89,0,-2,-1,19,37,-1,34.3,35.89,1018.14,0,0
2022-11-02 15:54:04,1016,76,-89,0,-2,-1,19,37,-1,34.3,35.89,1018.14,0,0
2022-11-02 15:54:04,1016,76,-89,0,-2,-1,19,37,-1,34.3,35.89,1018.14,0,0
2022-11-02 15:54:04,1016,76,-89,0,-2,-1,19,37,-1,34.3,35.89,1018.14,0,0
2022-11-02 15:54:04,1016,76,-89,0,-2,-1,19,37,-1,34.3,35.89,1018.14,0,0
2022-11-02 15:54:04,1016,76,-89,0,-2,-1,19,37,-1,34.3,35.89,1018.14,0,0
2022-11-02 15:54:04,1016,76,-89,0,-2,-1,19,37,-1,34.3,35.89,1018.14,0,0
2022-11-02 15:54:04,1016,76,-89,0,-2,-1,19,37,-1,34.3,35.89,1018.14,0,0
2022-11-02 15:54:04,1016,76,-89,0,-2,-1,19,37,-1,34.3,35.89,1018.14,0,0
2022-11-02 15:54:04,1016,76,-89,0,-2,-1,19,37,-1,34.3,35.89,1018.14,0,0
2022-11-02 15:54:04,1016,76,-89,0,-2,-1,19,37,-1,34.3,35.89,1018.14,0,0
2022-11-02 15:54:04,1013,80,-85,-1,0,-2,20,38,1,34.3,35.89,1018.14,0,0
2022-11-02 15:54:04,1013,80,-85,-1,0,-2,20,38,1,34.3,35.89,1018.14,0,0
2022-11-02 15:54:04,1013,80,-85,-1,0,-2,20,38,1,34.3,35.89,1018.14,0,0
2022-11-02 15:54:04,1013,80,-85,-1,0,-2,20,38,1,34.3,35.89,1018.14,0,0
2022-11-02 15:54:04,1013,80,-85,-1,0,-2,20,38,1,34.3,35.89,1018.14,0,0
2022-11-02 15:54:04,1013,80,-85,-1,0,-2,20,38,1,34.3,35.89,1018.14,0,0
2022-11-02 15:54:04,1013,80,-85,-1,0,-2,20,38,1,34.3,35.89,1018.14,0,0
2022-11-02 15:54:04,1013,80,-85,-1,0,-2,20,38,1,34.3,35.89,1018.14,0,0
2022-11-02 15:54:04,1013,80,-85,-1,0,-2,20,38,1,34.3,35.89,1018.14,0,0
2022-11-02 15:54:04,1013,80,-85,-1,0,-2,20,38,1,34.3,35.89,1018.14,0,0
2022-11-02 15:54:04,1013,80,-85,-1,0,-2,20,38,1,34.3,35.89,1018.14,0,0
2022-11-02 15:54:04,1013,80,-85,-1,0,-2,20,38,1,34.3,35.89,1018.14,0,0
2022-11-02 15:54:04,1011,87,-76,-1,0,0,20,36,0,34.3,35.89,1018.14,0,0
2022-11-02 15:54:04,1011,87,-76,-1,0,0,20,36,0,34.3,35.89,1018.14,0,0
2022-11-02 15:54:04,1011,87,-76,-1,0,0,20,36,0,34.3,35.89,1018.14,0,0
2022-11-02 15:54:04,1011,87,-76,-1,0,0,20,36,0,34.3,35.89,1018.14,0,0
2022-11-02 15:54:04,1011,87,-76,-1,0,0,20,36,0,34.3,35.89,1018.14,0,0
2022-11-02 15:54:04,1011,87,-76,-1,0,0,20,36,0,34.3,35.89,1018.14,0,0
2022-11-02 15:54:04,1011,87,-76,-1,0,0,20,36,0,34.3,35.89,1018.14,0,0
2022-11-02 15:54:04,1011,87,-76,-1,0,0,20,36,0,34.3,35.89,1018.14,0,0
2022-11-02 15:54:04,1011,87,-76,-1,0,0,20,36,0,34.3,35.89,1018.14,0,0
2022-11-02 15:54:04,1011,87,-76,-1,0,0,20,36,0,34.3,35.89,1018.14,0,0
2022-11-02 15:54:04,1011,87,-76,-1,0,0,20,36,0,34.3,35.89,1018.14,0,0
2022-11-02 15:54:04,1011,87,-76,-1,0,0,20,36,0,34.3,35.89,1018.14,0,0
2022-11-02 15:54:05,1016,87,-83,-1,0,0,19,37,0,34.3,35.89,1018.14,0,0
2022-11-02 15:54:05,1016,87,-83,-1,0,0,19,37,0,34.3,35.89,1018.14,0,0
2022-11-02 15:54:05,1016,87,-83,-1,0,0,19,37,0,34.3,35.89,1018.14,0,0
2022-11-02 15:54:05,1016,87,-83,-1,0,0,19,37,0,34.3,35.89,1018.14,0,0
2022-11-02 15:54:05,1016,87,-83,-1,0,0,19,37,0,34.3,35.89,1018.14,0,0
2022-11-02 15:54:05,1016,87,-83,-1,0,0,19,37,0,34.3,35.89,1018.14,0,0
2022-11-02 15:54:05,1016,87,-83,-1,0,0,19,37,0,34.3,35.89,1018.14,0,0
2022-11-02 15:54:05,1016,87,-83,-1,0,0,19,37,0,34.3,35.89,1018.14,0,0
2022-11-02 15:54:05,1016,87,-83,-1,0,0,19,37,0,34.3,35.89,1018.14,0,0
2022-11-02 15:54:05,1016,87,-83,-1,0,0,19,37,0,34.3,35.89,1018.14,0,0
2022-11-02 15:54:05,1016,87,-83,-1,0,0,19,37,0,34.3,35.89,1018.14,0,0
2022-11-02 15:54:05,1016,87,-83,-1,0,0,19,37,0,34.3,35.89,1018.14,0,0
2022-11-02 15:54:05,1015,85,-78,0,0,0,16,36,-1,34.3,35.89,1018.14,0,0
2022-11-02 15:54:05,1015,85,-78,0,0,0,16,36,-1,34.3,35.89,1018.14,0,0
2022-11-02 15:54:05,1015,85,-78,0,0,0,16,36,-1,34.3,35.89,1018.14,0,0
2022-11-02 15:54:05,1015,85,-78,0,0,0,16,36,-1,34.3,35.89,1018.14,0,0
2022-11-02 15:54:05,1015,85,-78,0,0,0,16,36,-1,34.3,35.89,1018.14,0,0
2022-11-02 15:54:05,1015,85,-78,0,0,0,16,36,-1,34.3,35.89,1018.14,0,0
2022-11-02 15:54:05,1015,85,-78,0,0,0,16,36,-1,34.3,35.89,1018.14,0,0
2022-11-02 15:54:05,1015,85,-78,0,0,0,16,36,-1,34.3,35.89,1018.14,0,0
2022-11-02 15:54:05,1015,85,-78,0,0,0,16,36,-1,34.3,35.89,1018.14,0,0
2022-11-02 15:54:05,1015,85,-78,0,0,0,16,36,-1,34.3,35.89,1018.14,0,0
2022-11-02 15:54:05,1015,85,-78,0,0,0,16,36,-1,34.3,35.89,1018.14,0,0
2022-11-02 15:54:05,1015,85,-78,0,0,0,16,36,-1,34.3,35.89,1018.14,0,0
2022-11-02 15:54:05,1024,89,-91,0,0,0,20,37,1,34.3,35.89,1018.13,0,0
2022-11-02 15:54:05,1024,89,-91,0,0,0,20,37,1,34.3,35.89,1018.13,0,0
2022-11-02 15:54:05,1024,89,-91,0,0,0,20,37,1,34.3,35.89,1018.13,0,0
2022-11-02 15:54:05,1024,89,-91,0,0,0,20,37,1,34.3,35.89,1018.13,0,0
2022-11-02 15:54:05,1024,89,-91,0,0,0,20,37,1,34.3,35.89,1018.13,0,0
2022-11-02 15:54:05,1024,89,-91,0,0,0,20,37,1,34.3,35.89,1018.13,0,0
2022-11-02 15:54:05,1024,89,-91,0,0,0,20,37,1,34.3,35.89,1018.13,0,0
2022-11-02 15:54:05,1024,89,-91,0,0,0,20,37,1,34.3,35.89,1018.13,0,0
2022-11-02 15:54:05,1024,89,-91,0,0,0,20,37,1,34.3,35.89,1018.13,0,0
2022-11-02 15:54:05,1024,89,-91,0,0,0,20,37,1,34.3,35.89,1018.13,0,0
2022-11-02 15:54:05,1024,89,-91,0,0,0,20,37,1,34.3,35.89,1018.13,0,0
2022-11-02 15:54:05,1024,89,-91,0,0,0,20,37,1,34.3,35.89,1018.13,0,0
2022-11-02 15:54:05,1015,85,-81,0,0,0,20,37,-3,34.3,35.89,1018.13,0,0
2022-11-02 15:54:05,1015,85,-81,0,0,0,20,37,-3,34.3,35.89,1018.13,0,0
2022-11-02 15:54:05,1015,85,-81,0,0,0,20,37,-3,34.3,35.89,1018.13,0,0
2022-11-02 15:54:05,1015,85,-81,0,0,0,20,37,-3,34.3,35.89,1018.13,0,0
2022-11-02 15:54:05,1015,85,-81,0,0,0,20,37,-3,34.3,35.89,1018.13,0,0
2022-11-02 15:54:05,1015,85,-81,0,0,0,20,37,-3,34.3,35.89,1018.13,0,0
2022-11-02 15:54:05,1015,85,-81,0,0,0,20,37,-3,34.3,35.89,1018.13,0,0
2022-11-02 15:54:05,1015,85,-81,0,0,0,20,37,-3,34.3,35.89,1018.13,0,0
2022-11-02 15:54:05,1015,85,-81,0,0,0,20,37,-3,34.3,35.89,1018.13,0,0
2022-11-02 15:54:05,1015,85,-81,0,0,0,20,37,-3,34.3,35.89,1018.13,0,0
2022-11-02 15:54:05,1015,85,-81,0,0,0,20,37,-3,34.3,35.89,1018.13,0,0
2022-11-02 15:54:05,1015,85,-81,0,0,0,20,37,-3,34.3,35.89,1018.13,0,0
2022-11-02 15:54:05,1013,89,-83,0,0,0,20,36,-3,34.3,35.89,1018.13,0,0
2022-11-02 15:54:05,1013,89,-83,0,0,0,20,36,-3,34.3,35.89,1018.13,0,0
2022-11-02 15:54:05,1013,89,-83,0,0,0,20,36,-3,34.3,35.89,1018.13,0,0
2022-11-02 15:54:05,1013,89,-83,0,0,0,20,36,-3,34.3,35.89,1018.13,0,0
2022-11-02 15:54:05,1013,89,-83,0,0,0,20,36,-3,34.3,35.89,1018.13,0,0
2022-11-02 15:54:05,1013,89,-83,0,0,0,20,36,-3,34.3,35.89,1018.13,0,0
2022-11-02 15:54:05,1013,89,-83,0,0,0,20,36,-3,34.3,35.89,1018.13,0,0
2022-11-02 15:54:05,1013,89,-83,0,0,0,20,36,-3,34.3,35.89,1018.13,0,0
2022-11-02 15:54:05,1013,89,-83,0,0,0,20,36,-3,34.3,35.89,1018.13,0,0
2022-11-02 15:54:05,1013,89,-83,0,0,0,20,36,-3,34.3,35.89,1018.13,0,0
2022-11-02 15:54:05,1013,89,-83,0,0,0,20,36,-3,34.3,35.89,1018.13,0,0
2022-11-02 15:54:05,1013,89,-83,0,0,0,20,36,-3,34.3,35.89,1018.13,0,0
2022-11-02 15:54:05,1022,78,-78,1,1,0,19,37,-3,34.3,35.89,1018.13,0,0
2022-11-02 15:54:05,1022,78,-78,1,1,0,19,37,-3,34.3,35.89,1018.13,0,0
2022-11-02 15:54:05,1022,78,-78,1,1,0,19,37,-3,34.3,35.89,1018.13,0,0
2022-11-02 15:54:05,1022,78,-78,1,1,0,19,37,-3,34.3,35.89,1018.13,0,0
2022-11-02 15:54:05,1022,78,-78,1,1,0,19,37,-3,34.3,35.89,1018.13,0,0
2022-11-02 15:54:05,1022,78,-78,1,1,0,19,37,-3,34.3,35.89,1018.13,0,0
2022-11-02 15:54:05,1022,78,-78,1,1,0,19,37,-3,34.3,35.89,1018.13,0,0
2022-11-02 15:54:05,1022,78,-78,1,1,0,19,37,-3,34.3,35.89,1018.13,0,0
2022-11-02 15:54:05,1022,78,-78,1,1,0,19,37,-3,34.3,35.89,1018.13,0,0
2022-11-02 15:54:05,1022,78,-78,1,1,0,19,37,-3,34.3,35.89,1018.13,0,0
2022-11-02 15:54:05,1022,78,-78,1,1,0,19,37,-3,34.3,35.89,1018.13,0,0
2022-11-02 15:54:05,1022,78,-78,1,1,0,19,37,-3,34.3,35.89,1018.13,0,0
2022-11-02 15:54:05,1011,83,-91,-1,-1,1,19,38,-1,34.3,35.89,1018.13,0,0
2022-11-02 15:54:05,1011,83,-91,-1,-1,1,19,38,-1,34.3,35.89,1018.13,0,0
2022-11-02 15:54:05,1011,83,-91,-1,-1,1,19,38,-1,34.3,35.89,1018.13,0,0
2022-11-02 15:54:05,1011,83,-91,-1,-1,1,19,38,-1,34.3,35.89,1018.13,0,0
2022-11-02 15:54:05,1011,83,-91,-1,-1,1,19,38,-1,34.3,35.89,1018.13,0,0
2022-11-02 15:54:05,1011,83,-91,-1,-1,1,19,38,-1,34.3,35.89,1018.13,0,0
2022-11-02 15:54:05,1011,83,-91,-1,-1,1,19,38,-1,34.3,35.89,1018.13,0,0
2022-11-02 15:54:05,1011,83,-91,-1,-1,1,19,38,-1,34.3,35.89,1018.13,0,0
2022-11-02 15:54:05,1011,83,-91,-1,-1,1,19,38,-1,34.3,35.89,1018.13,0,0
2022-11-02 15:54:05,1011,83,-91,-1,-1,1,19,38,-1,34.3,35.89,1018.13,0,0
2022-11-02 15:54:05,1011,83,-91,-1,-1,1,19,38,-1,34.3,35.89,1018.13,0,0
2022-11-02 15:54:05,1011,83,-91,-1,-1,1,19,38,-1,34.3,35.89,1018.13,0,0
2022-11-02 15:54:05,1018,93,-76,0,-2,2,20,37,-4,34.3,35.89,1018.13,0,0
2022-11-02 15:54:05,1018,93,-76,0,-2,2,20,37,-4,34.3,35.89,1018.13,0,0
2022-11-02 15:54:05,1018,93,-76,0,-2,2,20,37,-4,34.3,35.89,1018.13,0,0
2022-11-02 15:54:05,1018,93,-76,0,-2,2,20,37,-4,34.3,35.89,1018.13,0,0
2022-11-02 15:54:05,1018,93,-76,0,-2,2,20,37,-4,34.3,35.89,1018.13,0,0
2022-11-02 15:54:05,1018,93,-76,0,-2,2,20,37,-4,34.3,35.89,1018.13,0,0
2022-11-02 15:54:05,1018,93,-76,0,-2,2,20,37,-4,34.3,35.89,1018.13,0,0
2022-11-02 15:54:05,1018,93,-76,0,-2,2,20,37,-4,34.3,35.89,1018.13,0,0
2022-11-02 15:54:05,1018,93,-76,0,-2,2,20,37,-4,34.3,35.89,1018.13,0,0
2022-11-02 15:54:05,1018,93,-76,0,-2,2,20,37,-4,34.3,35.89,1018.13,0,0
2022-11-02 15:54:05,1018,93,-76,0,-2,2,20,37,-4,34.3,35.89,1018.13,0,0
2022-11-02 15:54:05,1018,93,-76,0,-2,2,20,37,-4,34.3,35.89,1018.13,0,0
2022-11-02 15:54:05,1020,68,-85,-1,-1,2,20,38,-2,34.3,35.89,1018.13,0,0
2022-11-02 15:54:05,1020,68,-85,-1,-1,2,20,38,-2,34.3,35.89,1018.13,0,0
2022-11-02 15:54:05,1020,68,-85,-1,-1,2,20,38,-2,34.3,35.89,1018.13,0,0
2022-11-02 15:54:05,1020,68,-85,-1,-1,2,20,38,-2,34.3,35.89,1018.13,0,0
2022-11-02 15:54:05,1020,68,-85,-1,-1,2,20,38,-2,34.3,35.89,1018.13,0,0
2022-11-02 15:54:05,1020,68,-85,-1,-1,2,20,38,-2,34.3,35.89,1018.13,0,0
2022-11-02 15:54:05,1020,68,-85,-1,-1,2,20,38,-2,34.3,35.89,1018.13,0,0
2022-11-02 15:54:05,1020,68,-85,-1,-1,2,20,38,-2,34.3,35.89,1018.13,0,0
2022-11-02 15:54:05,1020,68,-85,-1,-1,2,20,38,-2,34.3,35.89,1018.13,0,0
2022-11-02 15:54:05,1020,68,-85,-1,-1,2,20,38,-2,34.3,35.89,1018.13,0,0
2022-11-02 15:54:05,1020,68,-85,-1,-1,2,20,38,-2,34.3,35.89,1018.13,0,0
2022-11-02 15:54:05,1020,68,-85,-1,-1,2,20,38,-2,34.3,35.89,1018.13,0,0
2022-11-02 15:54:05,1011,64,-78,-5,0,2,19,39,0,34.3,35.89,1018.13,0,0
2022-11-02 15:54:05,1011,64,-78,-5,0,2,19,39,0,34.3,35.89,1018.13,0,0
2022-11-02 15:54:05,1011,64,-78,-5,0,2,19,39,0,34.3,35.89,1018.13,0,0
2022-11-02 15:54:05,1011,64,-78,-5,0,2,19,39,0,34.3,35.89,1018.13,0,0
2022-11-02 15:54:05,1011,64,-78,-5,0,2,19,39,0,34.3,35.89,1018.13,0,0
2022-11-02 15:54:05,1011,64,-78,-5,0,2,19,39,0,34.3,35.89,1018.13,0,0
2022-11-02 15:54:05,1011,64,-78,-5,0,2,19,39,0,34.3,35.89,1018.13,0,0
2022-11-02 15:54:05,1011,64,-78,-5,0,2,19,39,0,34.3,35.89,1018.13,0,0
2022-11-02 15:54:05,1011,64,-78,-5,0,2,19,39,0,34.3,35.89,1018.13,0,0
2022-11-02 15:54:05,1011,64,-78,-5,0,2,19,39,0,34.3,35.89,1018.13,0,0
2022-11-02 15:54:05,1011,64,-78,-5,0,2,19,39,0,34.3,35.89,1018.13,0,0
2022-11-02 15:54:05,1011,64,-78,-5,0,2,19,39,0,34.3,35.89,1018.13,0,0
2022-11-02 15:54:06,1020,70,-80,-3,0,2,20,39,-1,34.3,35.89,1018.13,0,0
2022-11-02 15:54:06,1020,70,-80,-3,0,2,20,39,-1,34.3,35.89,1018.13,0,0
2022-11-02 15:54:06,1020,70,-80,-3,0,2,20,39,-1,34.3,35.89,1018.13,0,0
2022-11-02 15:54:06,1020,70,-80,-3,0,2,20,39,-1,34.3,35.89,1018.13,0,0
2022-11-02 15:54:06,1020,70,-80,-3,0,2,20,39,-1,34.3,35.89,1018.13,0,0
2022-11-02 15:54:06,1020,70,-80,-3,0,2,20,39,-1,34.3,35.89,1018.13,0,0
2022-11-02 15:54:06,1020,70,-80,-3,0,2,20,39,-1,34.3,35.89,1018.13,0,0
2022-11-02 15:54:06,1020,70,-80,-3,0,2,20,39,-1,34.3,35.89,1018.13,0,0
2022-11-02 15:54:06,1020,70,-80,-3,0,2,20,39,-1,34.3,35.89,1018.13,0,0
2022-11-02 15:54:06,1020,70,-80,-3,0,2,20,39,-1,34.3,35.89,1018.13,0,0
2022-11-02 15:54:06,1020,70,-80,-3,0,2,20,39,-1,34.3,35.89,1018.13,0,0
2022-11-02 15:54:06,1020,70,-80,-3,0,2,20,39,-1,34.3,35.89,1018.13,0,0
2022-11-02 15:54:06,1018,64,-87,-2,0,1,17,38,0,34.3,35.89,1018.13,0,0
2022-11-02 15:54:06,1018,64,-87,-2,0,1,17,38,0,34.3,35.89,1018.13,0,0
2022-11-02 15:54:06,1018,64,-87,-2,0,1,17,38,0,34.3,35.89,1018.13,0,0
2022-11-02 15:54:06,1018,64,-87,-2,0,1,17,38,0,34.3,35.89,1018.13,0,0
2022-11-02 15:54:06,1018,64,-87,-2,0,1,17,38,0,34.3,35.89,1018.13,0,0
2022-11-02 15:54:06,1018,64,-87,-2,0,1,17,38,0,34.3,35.89,1018.13,0,0
2022-11-02 15:54:06,1018,64,-87,-2,0,1,17,38,0,34.3,35.89,1018.13,0,0
2022-11-02 15:54:06,1018,64,-87,-2,0,1,17,38,0,34.3,35.89,1018.13,0,0
2022-11-02 15:54:06,1018,64,-87,-2,0,1,17,38,0,34.3,35.89,1018.13,0,0
2022-11-02 15:54:06,1018,64,-87,-2,0,1,17,38,0,34.3,35.89,1018.13,0,0
2022-11-02 15:54:06,1018,64,-87,-2,0,1,17,38,0,34.3,35.89,1018.13,0,0
2022-11-02 15:54:06,1018,64,-87,-2,0,1,17,38,0,34.3,35.89,1018.13,0,0
2022-11-02 15:54:06,1013,70,-95,0,0,0,20,39,2,34.3,35.89,1018.13,0,0
2022-11-02 15:54:06,1013,70,-95,0,0,0,20,39,2,34.3,35.89,1018.13,0,0
2022-11-02 15:54:06,1013,70,-95,0,0,0,20,39,2,34.3,35.89,1018.13,0,0
2022-11-02 15:54:06,1013,70,-95,0,0,0,20,39,2,34.3,35.89,1018.13,0,0
2022-11-02 15:54:06,1013,70,-95,0,0,0,20,39,2,34.3,35.89,1018.13,0,0
2022-11-02 15:54:06,1013,70,-95,0,0,0,20,39,2,34.3,35.89,1018.13,0,0
2022-11-02 15:54:06,1013,70,-95,0,0,0,20,39,2,34.3,35.89,1018.13,0,0
2022-11-02 15:54:06,1013,70,-95,0,0,0,20,39,2,34.3,35.89,1018.13,0,0
2022-11-02 15:54:06,1013,70,-95,0,0,0,20,39,2,34.3,35.89,1018.13,0,0
2022-11-02 15:54:06,1013,70,-95,0,0,0,20,39,2,34.3,35.89,1018.13,0,0
2022-11-02 15:54:06,1013,70,-95,0,0,0,20,39,2,34.3,35.89,1018.13,0,0
2022-11-02 15:54:06,1013,70,-95,0,0,0,20,39,2,34.3,35.89,1018.13,0,0
2022-11-02 15:54:06,1013,60,-103,0,0,0,20,38,-3,34.3,35.89,1018.13,0,0
2022-11-02 15:54:06,1013,60,-103,0,0,0,20,38,-3,34.3,35.89,1018.13,0,0
2022-11-02 15:54:06,1013,60,-103,0,0,0,20,38,-3,34.3,35.89,1018.13,0,0
2022-11-02 15:54:06,1013,60,-103,0,0,0,20,38,-3,34.3,35.89,1018.13,0,0
2022-11-02 15:54:06,1013,60,-103,0,0,0,20,38,-3,34.3,35.89,1018.13,0,0
2022-11-02 15:54:06,1013,60,-103,0,0,0,20,38,-3,34.3,35.89,1018.13,0,0
2022-11-02 15:54:06,1013,60,-103,0,0,0,20,38,-3,34.3,35.89,1018.13,0,0
2022-11-02 15:54:06,1013,60,-103,0,0,0,20,38,-3,34.3,35.89,1018.13,0,0
2022-11-02 15:54:06,1013,60,-103,0,0,0,20,38,-3,34.3,35.89,1018.13,0,0
2022-11-02 15:54:06,1013,60,-103,0,0,0,20,38,-3,34.3,35.89,1018.13,0,0
2022-11-02 15:54:06,1013,60,-103,0,0,0,20,38,-3,34.3,35.89,1018.13,0,0
2022-11-02 15:54:06,1013,60,-103,0,0,0,20,38,-3,34.3,35.89,1018.13,0,0
2022-11-02 15:54:06,1015,68,-87,1,0,-1,20,37,3,34.3,35.89,1018.13,0,0
2022-11-02 15:54:06,1015,68,-87,1,0,-1,20,37,3,34.3,35.89,1018.13,0,0
2022-11-02 15:54:06,1015,68,-87,1,0,-1,20,37,3,34.3,35.89,1018.13,0,0
2022-11-02 15:54:06,1015,68,-87,1,0,-1,20,37,3,34.3,35.89,1018.13,0,0
2022-11-02 15:54:06,1015,68,-87,1,0,-1,20,37,3,34.3,35.89,1018.13,0,0
2022-11-02 15:54:06,1015,68,-87,1,0,-1,20,37,3,34.3,35.89,1018.13,0,0
2022-11-02 15:54:06,1015,68,-87,1,0,-1,20,37,3,34.3,35.89,1018.13,0,0
2022-11-02 15:54:06,1015,68,-87,1,0,-1,20,37,3,34.3,35.89,1018.13,0,0
2022-11-02 15:54:06,1015,68,-87,1,0,-1,20,37,3,34.3,35.89,1018.13,0,0
2022-11-02 15:54:06,1015,68,-87,1,0,-1,20,37,3,34.3,35.89,1018.13,0,0
2022-11-02 15:54:06,1015,68,-87,1,0,-1,20,37,3,34.3,35.89,1018.13,0,0
2022-11-02 15:54:06,1015,68,-87,1,0,-1,20,37,3,34.3,35.89,1018.13,0,0
2022-11-02 15:54:06,1009,78,-99,2,0,-1,19,36,1,34.3,35.89,1018.13,0,0
2022-11-02 15:54:06,1009,78,-99,2,0,-1,19,36,1,34.3,35.89,1018.13,0,0
2022-11-02 15:54:06,1009,78,-99,2,0,-1,19,36,1,34.3,35.89,1018.13,0,0
2022-11-02 15:54:06,1009,78,-99,2,0,-1,19,36,1,34.3,35.89,1018.13,0,0
2022-11-02 15:54:06,1009,78,-99,2,0,-1,19,36,1,34.3,35.89,1018.13,0,0
2022-11-02 15:54:06,1009,78,-99,2,0,-1,19,36,1,34.3,35.89,1018.13,0,0
2022-11-02 15:54:06,1009,78,-99,2,0,-1,19,36,1,34.3,35.89,1018.13,0,0
2022-11-02 15:54:06,1009,78,-99,2,0,-1,19,36,1,34.3,35.89,1018.13,0,0
2022-11-02 15:54:06,1009,78,-99,2,0,-1,19,36,1,34.3,35.89,1018.13,0,0
2022-11-02 15:54:06,1009,78,-99,2,0,-1,19,36,1,34.3,35.89,1018.13,0,0
2022-11-02 15:54:06,1009,78,-99,2,0,-1,19,36,1,34.3,35.89,1018.13,0,0
2022-11-02 15:54:06,1009,78,-99,2,0,-1,19,36,1,34.3,35.89,1018.13,0,0
2022-11-02 15:54:06,1020,70,-87,1,0,0,19,35,1,34.3,35.89,1018.13,0,0
2022-11-02 15:54:06,1020,70,-87,1,0,0,19,35,1,34.3,35.89,1018.13,0,0
2022-11-02 15:54:06,1020,70,-87,1,0,0,19,35,1,34.3,35.89,1018.13,0,0
2022-11-02 15:54:06,1020,70,-87,1,0,0,19,35,1,34.3,35.89,1018.13,0,0
2022-11-02 15:54:06,1020,70,-87,1,0,0,19,35,1,34.3,35.89,1018.13,0,0
2022-11-02 15:54:06,1020,70,-87,1,0,0,19,35,1,34.3,35.89,1018.13,0,0
2022-11-02 15:54:06,1020,70,-87,1,0,0,19,35,1,34.3,35.89,1018.13,0,0
2022-11-02 15:54:06,1020,70,-87,1,0,0,19,35,1,34.3,35.89,1018.13,0,0
2022-11-02 15:54:06,1020,70,-87,1,0,0,19,35,1,34.3,35.89,1018.13,0,0
2022-11-02 15:54:06,1020,70,-87,1,0,0,19,35,1,34.3,35.89,1018.13,0,0
2022-11-02 15:54:06,1020,70,-87,1,0,0,19,35,1,34.3,35.89,1018.13,0,0
2022-11-02 15:54:06,1020,70,-87,1,0,0,19,35,1,34.3,35.89,1018.13,0,0
2022-11-02 15:54:06,1007,70,-95,1,2,-1,21,37,0,34.3,35.89,1018.13,0,0
2022-11-02 15:54:06,1007,70,-95,1,2,-1,21,37,0,34.3,35.89,1018.13,0,0
2022-11-02 15:54:06,1007,70,-95,1,2,-1,21,37,0,34.3,35.89,1018.13,0,0
2022-11-02 15:54:06,1007,70,-95,1,2,-1,21,37,0,34.3,35.89,1018.13,0,0
2022-11-02 15:54:06,1007,70,-95,1,2,-1,21,37,0,34.3,35.89,1018.13,0,0
2022-11-02 15:54:06,1007,70,-95,1,2,-1,21,37,0,34.3,35.89,1018.13,0,0
2022-11-02 15:54:06,1007,70,-95,1,2,-1,21,37,0,34.3,35.89,1018.13,0,0
2022-11-02 15:54:06,1007,70,-95,1,2,-1,21,37,0,34.3,35.89,1018.13,0,0
2022-11-02 15:54:06,1007,70,-95,1,2,-1,21,37,0,34.3,35.89,1018.13,0,0
2022-11-02 15:54:06,1007,70,-95,1,2,-1,21,37,0,34.3,35.89,1018.13,0,0
2022-11-02 15:54:06,1007,70,-95,1,2,-1,21,37,0,34.3,35.89,1018.13,0,0
2022-11-02 15:54:06,1007,70,-95,1,2,-1,21,37,0,34.3,35.89,1018.13,0,0
2022-11-02 15:54:06,1022,74,-76,0,2,0,19,39,2,34.3,35.89,1018.13,0,0
2022-11-02 15:54:06,1022,74,-76,0,2,0,19,39,2,34.3,35.89,1018.13,0,0
2022-11-02 15:54:06,1022,74,-76,0,2,0,19,39,2,34.3,35.89,1018.13,0,0
2022-11-02 15:54:06,1022,74,-76,0,2,0,19,39,2,34.3,35.89,1018.13,0,0
2022-11-02 15:54:06,1022,74,-76,0,2,0,19,39,2,34.3,35.89,1018.13,0,0
2022-11-02 15:54:06,1022,74,-76,0,2,0,19,39,2,34.3,35.89,1018.13,0,0
2022-11-02 15:54:06,1022,74,-76,0,2,0,19,39,2,34.3,35.89,1018.13,0,0
2022-11-02 15:54:06,1022,74,-76,0,2,0,19,39,2,34.3,35.89,1018.13,0,0
2022-11-02 15:54:06,1022,74,-76,0,2,0,19,39,2,34.3,35.89,1018.13,0,0
2022-11-02 15:54:06,1022,74,-76,0,2,0,19,39,2,34.3,35.89,1018.13,0,0
2022-11-02 15:54:06,1022,74,-76,0,2,0,19,39,2,34.3,35.89,1018.13,0,0
2022-11-02 15:54:06,1022,74,-76,0,2,0,19,39,2,34.3,35.89,1018.13,0,0
2022-11-02 15:54:06,1028,64,-78,0,1,0,21,37,-4,34.3,35.89,1018.13,0,0
2022-11-02 15:54:06,1028,64,-78,0,1,0,21,37,-4,34.3,35.89,1018.13,0,0
2022-11-02 15:54:06,1028,64,-78,0,1,0,21,37,-4,34.3,35.89,1018.13,0,0
2022-11-02 15:54:06,1028,64,-78,0,1,0,21,37,-4,34.3,35.89,1018.13,0,0
2022-11-02 15:54:06,1028,64,-78,0,1,0,21,37,-4,34.3,35.89,1018.13,0,0
2022-11-02 15:54:06,1028,64,-78,0,1,0,21,37,-4,34.3,35.89,1018.13,0,0
2022-11-02 15:54:06,1028,64,-78,0,1,0,21,37,-4,34.3,35.89,1018.13,0,0
2022-11-02 15:54:06,1028,64,-78,0,1,0,21,37,-4,34.3,35.89,1018.13,0,0
2022-11-02 15:54:06,1028,64,-78,0,1,0,21,37,-4,34.3,35.89,1018.13,0,0
2022-11-02 15:54:06,1028,64,-78,0,1,0,21,37,-4,34.3,35.89,1018.13,0,0
2022-11-02 15:54:06,1028,64,-78,0,1,0,21,37,-4,34.3,35.89,1018.13,0,0
2022-11-02 15:54:06,1028,64,-78,0,1,0,21,37,-4,34.3,35.89,1018.13,0,0
2022-11-02 15:54:07,1011,74,-85,0,1,0,19,40,0,34.3,35.89,1018.13,0,0
2022-11-02 15:54:07,1011,74,-85,0,1,0,19,40,0,34.3,35.89,1018.13,0,0
2022-11-02 15:54:07,1011,74,-85,0,1,0,19,40,0,34.3,35.89,1018.13,0,0
2022-11-02 15:54:07,1011,74,-85,0,1,0,19,40,0,34.3,35.89,1018.13,0,0
2022-11-02 15:54:07,1011,74,-85,0,1,0,19,40,0,34.3,35.89,1018.13,0,0
2022-11-02 15:54:07,1011,74,-85,0,1,0,19,40,0,34.3,35.89,1018.13,0,0
2022-11-02 15:54:07,1011,74,-85,0,1,0,19,40,0,34.3,35.89,1018.13,0,0
2022-11-02 15:54:07,1011,74,-85,0,1,0,19,40,0,34.3,35.89,1018.13,0,0
2022-11-02 15:54:07,1011,74,-85,0,1,0,19,40,0,34.3,35.89,1018.13,0,0
2022-11-02 15:54:07,1011,74,-85,0,1,0,19,40,0,34.3,35.89,1018.13,0,0
2022-11-02 15:54:07,1011,74,-85,0,1,0,19,40,0,34.3,35.89,1018.13,0,0
2022-11-02 15:54:07,1011,74,-85,0,1,0,19,40,0,34.3,35.89,1018.13,0,0
2022-11-02 15:54:07,1018,83,-78,1,1,-1,20,39,-1,34.3,35.89,1018.13,0,0
2022-11-02 15:54:07,1018,83,-78,1,1,-1,20,39,-1,34.3,35.89,1018.13,0,0
2022-11-02 15:54:07,1018,83,-78,1,1,-1,20,39,-1,34.3,35.89,1018.13,0,0
2022-11-02 15:54:07,1018,83,-78,1,1,-1,20,39,-1,34.3,35.89,1018.13,0,0
2022-11-02 15:54:07,1018,83,-78,1,1,-1,20,39,-1,34.3,35.89,1018.13,0,0
2022-11-02 15:54:07,1018,83,-78,1,1,-1,20,39,-1,34.3,35.89,1018.13,0,0
2022-11-02 15:54:07,1018,83,-78,1,1,-1,20,39,-1,34.3,35.89,1018.13,0,0
2022-11-02 15:54:07,1018,83,-78,1,1,-1,20,39,-1,34.3,35.89,1018.13,0,0
2022-11-02 15:54:07,1018,83,-78,1,1,-1,20,39,-1,34.3,35.89,1018.13,0,0
2022-11-02 15:54:07,1018,83,-78,1,1,-1,20,39,-1,34.3,35.89,1018.13,0,0
2022-11-02 15:54:07,1018,83,-78,1,1,-1,20,39,-1,34.3,35.89,1018.13,0,0
2022-11-02 15:54:07,1018,83,-78,1,1,-1,20,39,-1,34.3,35.89,1018.13,0,0
2022-11-02 15:54:07,1022,83,-87,1,0,0,20,38,-2,34.3,35.91,1018.14,0,0
2022-11-02 15:54:07,1022,83,-87,1,0,0,20,38,-2,34.3,35.91,1018.14,0,0
2022-11-02 15:54:07,1022,83,-87,1,0,0,20,38,-2,34.3,35.91,1018.14,0,0
2022-11-02 15:54:07,1022,83,-87,1,0,0,20,38,-2,34.3,35.91,1018.14,0,0
2022-11-02 15:54:07,1022,83,-87,1,0,0,20,38,-2,34.3,35.91,1018.14,0,0
2022-11-02 15:54:07,1022,83,-87,1,0,0,20,38,-2,34.3,35.91,1018.14,0,0
2022-11-02 15:54:07,1022,83,-87,1,0,0,20,38,-2,34.3,35.91,1018.14,0,0
2022-11-02 15:54:07,1022,83,-87,1,0,0,20,38,-2,34.3,35.91,1018.14,0,0
2022-11-02 15:54:07,1022,83,-87,1,0,0,20,38,-2,34.3,35.91,1018.14,0,0
2022-11-02 15:54:07,1022,83,-87,1,0,0,20,38,-2,34.3,35.91,1018.14,0,0
2022-11-02 15:54:07,1022,83,-87,1,0,0,20,38,-2,34.3,35.91,1018.14,0,0
2022-11-02 15:54:07,1022,83,-87,1,0,0,20,38,-2,34.3,35.91,1018.14,0,0
2022-11-02 15:54:07,1013,83,-85,0,1,0,19,38,2,34.3,35.91,1018.14,0,0
2022-11-02 15:54:07,1013,83,-85,0,1,0,19,38,2,34.3,35.91,1018.14,0,0
2022-11-02 15:54:07,1013,83,-85,0,1,0,19,38,2,34.3,35.91,1018.14,0,0
2022-11-02 15:54:07,1013,83,-85,0,1,0,19,38,2,34.3,35.91,1018.14,0,0
2022-11-02 15:54:07,1013,83,-85,0,1,0,19,38,2,34.3,35.91,1018.14,0,0
2022-11-02 15:54:07,1013,83,-85,0,1,0,19,38,2,34.3,35.91,1018.14,0,0
2022-11-02 15:54:07,1013,83,-85,0,1,0,19,38,2,34.3,35.91,1018.14,0,0
2022-11-02 15:54:07,1013,83,-85,0,1,0,19,38,2,34.3,35.91,1018.14,0,0
2022-11-02 15:54:07,1013,83,-85,0,1,0,19,38,2,34.3,35.91,1018.14,0,0
2022-11-02 15:54:07,1013,83,-85,0,1,0,19,38,2,34.3,35.91,1018.14,0,0
2022-11-02 15:54:07,1013,83,-85,0,1,0,19,38,2,34.3,35.91,1018.14,0,0
2022-11-02 15:54:07,1013,83,-85,0,1,0,19,38,2,34.3,35.91,1018.14,0,0
2022-11-02 15:54:07,1026,70,-72,0,0,0,20,36,3,34.3,35.91,1018.14,0,0
2022-11-02 15:54:07,1026,70,-72,0,0,0,20,36,3,34.3,35.91,1018.14,0,0
2022-11-02 15:54:07,1026,70,-72,0,0,0,20,36,3,34.3,35.91,1018.14,0,0
2022-11-02 15:54:07,1026,70,-72,0,0,0,20,36,3,34.3,35.91,1018.14,0,0
2022-11-02 15:54:07,1026,70,-72,0,0,0,20,36,3,34.3,35.91,1018.14,0,0
2022-11-02 15:54:07,1026,70,-72,0,0,0,20,36,3,34.3,35.91,1018.14,0,0
2022-11-02 15:54:07,1026,70,-72,0,0,0,20,36,3,34.3,35.91,1018.14,0,0
2022-11-02 15:54:07,1026,70,-72,0,0,0,20,36,3,34.3,35.91,1018.14,0,0
2022-11-02 15:54:07,1026,70,-72,0,0,0,20,36,3,34.3,35.91,1018.14,0,0
2022-11-02 15:54:07,1026,70,-72,0,0,0,20,36,3,34.3,35.91,1018.14,0,0
2022-11-02 15:54:07,1026,70,-72,0,0,0,20,36,3,34.3,35.91,1018.14,0,0
2022-11-02 15:54:07,1026,70,-72,0,0,0,20,36,3,34.3,35.91,1018.14,0,0
2022-11-02 15:54:07,1009,83,-87,-1,0,0,21,36,0,34.3,35.91,1018.14,0,0
2022-11-02 15:54:07,1009,83,-87,-1,0,0,21,36,0,34.3,35.91,1018.14,0,0
2022-11-02 15:54:07,1009,83,-87,-1,0,0,21,36,0,34.3,35.91,1018.14,0,0
2022-11-02 15:54:07,1009,83,-87,-1,0,0,21,36,0,34.3,35.91,1018.14,0,0
2022-11-02 15:54:07,1009,83,-87,-1,0,0,21,36,0,34.3,35.91,1018.14,0,0
2022-11-02 15:54:07,1009,83,-87,-1,0,0,21,36,0,34.3,35.91,1018.14,0,0
2022-11-02 15:54:07,1009,83,-87,-1,0,0,21,36,0,34.3,35.91,1018.14,0,0
2022-11-02 15:54:07,1009,83,-87,-1,0,0,21,36,0,34.3,35.91,1018.14,0,0
2022-11-02 15:54:07,1009,83,-87,-1,0,0,21,36,0,34.3,35.91,1018.14,0,0
2022-11-02 15:54:07,1009,83,-87,-1,0,0,21,36,0,34.3,35.91,1018.14,0,0
2022-11-02 15:54:07,1009,83,-87,-1,0,0,21,36,0,34.3,35.91,1018.14,0,0
2022-11-02 15:54:07,1009,83,-87,-1,0,0,21,36,0,34.3,35.91,1018.14,0,0
2022-11-02 15:54:07,1013,68,-80,-1,0,0,21,37,-3,34.3,35.91,1018.14,0,0
2022-11-02 15:54:07,1013,68,-80,-1,0,0,21,37,-3,34.3,35.91,1018.14,0,0
2022-11-02 15:54:07,1013,68,-80,-1,0,0,21,37,-3,34.3,35.91,1018.14,0,0
2022-11-02 15:54:07,1013,68,-80,-1,0,0,21,37,-3,34.3,35.91,1018.14,0,0
2022-11-02 15:54:07,1013,68,-80,-1,0,0,21,37,-3,34.3,35.91,1018.14,0,0
2022-11-02 15:54:07,1013,68,-80,-1,0,0,21,37,-3,34.3,35.91,1018.14,0,0
2022-11-02 15:54:07,1013,68,-80,-1,0,0,21,37,-3,34.3,35.91,1018.14,0,0
2022-11-02 15:54:07,1013,68,-80,-1,0,0,21,37,-3,34.3,35.91,1018.14,0,0
2022-11-02 15:54:07,1013,68,-80,-1,0,0,21,37,-3,34.3,35.91,1018.14,0,0
2022-11-02 15:54:07,1013,68,-80,-1,0,0,21,37,-3,34.3,35.91,1018.14,0,0
2022-11-02 15:54:07,1013,68,-80,-1,0,0,21,37,-3,34.3,35.91,1018.14,0,0
2022-11-02 15:54:07,1013,68,-80,-1,0,0,21,37,-3,34.3,35.91,1018.14,0,0
2022-11-02 15:54:07,1011,74,-81,-1,1,0,19,37,-3,34.3,35.91,1018.14,0,0
2022-11-02 15:54:07,1011,74,-81,-1,1,0,19,37,-3,34.3,35.91,1018.14,0,0
2022-11-02 15:54:07,1011,74,-81,-1,1,0,19,37,-3,34.3,35.91,1018.14,0,0
2022-11-02 15:54:07,1011,74,-81,-1,1,0,19,37,-3,34.3,35.91,1018.14,0,0
2022-11-02 15:54:07,1011,74,-81,-1,1,0,19,37,-3,34.3,35.91,1018.14,0,0
2022-11-02 15:54:07,1011,74,-81,-1,1,0,19,37,-3,34.3,35.91,1018.14,0,0
2022-11-02 15:54:07,1011,74,-81,-1,1,0,19,37,-3,34.3,35.91,1018.14,0,0
2022-11-02 15:54:07,1011,74,-81,-1,1,0,19,37,-3,34.3,35.91,1018.14,0,0
2022-11-02 15:54:07,1011,74,-81,-1,1,0,19,37,-3,34.3,35.91,1018.14,0,0
2022-11-02 15:54:07,1011,74,-81,-1,1,0,19,37,-3,34.3,35.91,1018.14,0,0
2022-11-02 15:54:07,1011,74,-81,-1,1,0,19,37,-3,34.3,35.91,1018.14,0,0
2022-11-02 15:54:07,1011,74,-81,-1,1,0,19,37,-3,34.3,35.91,1018.14,0,0
2022-11-02 15:54:07,1015,64,-76,0,0,0,17,38,0,34.3,35.91,1018.14,0,0
2022-11-02 15:54:07,1015,64,-76,0,0,0,17,38,0,34.3,35.91,1018.14,0,0
2022-11-02 15:54:07,1015,64,-76,0,0,0,17,38,0,34.3,35.91,1018.14,0,0
2022-11-02 15:54:07,1015,64,-76,0,0,0,17,38,0,34.3,35.91,1018.14,0,0
2022-11-02 15:54:07,1015,64,-76,0,0,0,17,38,0,34.3,35.91,1018.14,0,0
2022-11-02 15:54:07,1015,64,-76,0,0,0,17,38,0,34.3,35.91,1018.14,0,0
2022-11-02 15:54:07,1015,64,-76,0,0,0,17,38,0,34.3,35.91,1018.14,0,0
2022-11-02 15:54:07,1015,64,-76,0,0,0,17,38,0,34.3,35.91,1018.14,0,0
2022-11-02 15:54:07,1015,64,-76,0,0,0,17,38,0,34.3,35.91,1018.14,0,0
2022-11-02 15:54:07,1015,64,-76,0,0,0,17,38,0,34.3,35.91,1018.14,0,0
2022-11-02 15:54:07,1015,64,-76,0,0,0,17,38,0,34.3,35.91,1018.14,0,0
2022-11-02 15:54:07,1015,64,-76,0,0,0,17,38,0,34.3,35.91,1018.14,0,0
2022-11-02 15:54:07,1016,83,-83,0,0,0,22,40,4,34.3,35.91,1018.14,0,0
2022-11-02 15:54:07,1016,83,-83,0,0,0,22,40,4,34.3,35.91,1018.14,0,0
2022-11-02 15:54:07,1016,83,-83,0,0,0,22,40,4,34.3,35.91,1018.14,0,0
2022-11-02 15:54:07,1016,83,-83,0,0,0,22,40,4,34.3,35.91,1018.14,0,0
2022-11-02 15:54:07,1016,83,-83,0,0,0,22,40,4,34.3,35.91,1018.14,0,0
2022-11-02 15:54:07,1016,83,-83,0,0,0,22,40,4,34.3,35.91,1018.14,0,0
2022-11-02 15:54:07,1016,83,-83,0,0,0,22,40,4,34.3,35.91,1018.14,0,0
2022-11-02 15:54:07,1016,83,-83,0,0,0,22,40,4,34.3,35.91,1018.14,0,0
2022-11-02 15:54:07,1016,83,-83,0,0,0,22,40,4,34.3,35.91,1018.14,0,0
2022-11-02 15:54:07,1016,83,-83,0,0,0,22,40,4,34.3,35.91,1018.14,0,0
2022-11-02 15:54:07,1016,83,-83,0,0,0,22,40,4,34.3,35.91,1018.14,0,0
2022-11-02 15:54:07,1016,83,-83,0,0,0,22,40,4,34.3,35.91,1018.14,0,0
2022-11-02 15:54:08,1022,80,-60,0,0,0,20,39,-2,34.3,35.91,1018.14,0,0
2022-11-02 15:54:08,1022,80,-60,0,0,0,20,39,-2,34.3,35.91,1018.14,0,0
2022-11-02 15:54:08,1022,80,-60,0,0,0,20,39,-2,34.3,35.91,1018.14,0,0
2022-11-02 15:54:08,1022,80,-60,0,0,0,20,39,-2,34.3,35.91,1018.14,0,0
2022-11-02 15:54:08,1022,80,-60,0,0,0,20,39,-2,34.3,35.91,1018.14,0,0
2022-11-02 15:54:08,1022,80,-60,0,0,0,20,39,-2,34.3,35.91,1018.14,0,0
2022-11-02 15:54:08,1022,80,-60,0,0,0,20,39,-2,34.3,35.91,1018.14,0,0
2022-11-02 15:54:08,1022,80,-60,0,0,0,20,39,-2,34.3,35.91,1018.14,0,0
2022-11-02 15:54:08,1022,80,-60,0,0,0,20,39,-2,34.3,35.91,1018.14,0,0
2022-11-02 15:54:08,1022,80,-60,0,0,0,20,39,-2,34.3,35.91,1018.14,0,0
2022-11-02 15:54:08,1022,80,-60,0,0,0,20,39,-2,34.3,35.91,1018.14,0,0
2022-11-02 15:54:08,1022,80,-60,0,0,0,20,39,-2,34.3,35.91,1018.14,0,0
2022-11-02 15:54:08,1018,62,-56,0,0,0,21,38,0,34.3,35.91,1018.14,0,0
2022-11-02 15:54:08,1018,62,-56,0,0,0,21,38,0,34.3,35.91,1018.14,0,0
2022-11-02 15:54:08,1018,62,-56,0,0,0,21,38,0,34.3,35.91,1018.14,0,0
2022-11-02 15:54:08,1018,62,-56,0,0,0,21,38,0,34.3,35.91,1018.14,0,0
2022-11-02 15:54:08,1018,62,-56,0,0,0,21,38,0,34.3,35.91,1018.14,0,0
2022-11-02 15:54:08,1018,62,-56,0,0,0,21,38,0,34.3,35.91,1018.14,0,0
2022-11-02 15:54:08,1018,62,-56,0,0,0,21,38,0,34.3,35.91,1018.14,0,0
2022-11-02 15:54:08,1018,62,-56,0,0,0,21,38,0,34.3,35.91,1018.14,0,0
2022-11-02 15:54:08,1018,62,-56,0,0,0,21,38,0,34.3,35.91,1018.14,0,0
2022-11-02 15:54:08,1018,62,-56,0,0,0,21,38,0,34.3,35.91,1018.14,0,0
2022-11-02 15:54:08,1018,62,-56,0,0,0,21,38,0,34.3,35.91,1018.14,0,0
2022-11-02 15:54:08,1018,62,-56,0,0,0,21,38,0,34.3,35.91,1018.14,0,0
2022-11-02 15:54:08,1016,72,-72,0,1,0,18,39,2,34.3,35.91,1018.16,0,0
2022-11-02 15:54:08,1016,72,-72,0,1,0,18,39,2,34.3,35.91,1018.16,0,0
2022-11-02 15:54:08,1016,72,-72,0,1,0,18,39,2,34.3,35.91,1018.16,0,0
2022-11-02 15:54:08,1016,72,-72,0,1,0,18,39,2,34.3,35.91,1018.16,0,0
2022-11-02 15:54:08,1016,72,-72,0,1,0,18,39,2,34.3,35.91,1018.16,0,0
2022-11-02 15:54:08,1016,72,-72,0,1,0,18,39,2,34.3,35.91,1018.16,0,0
2022-11-02 15:54:08,1016,72,-72,0,1,0,18,39,2,34.3,35.91,1018.16,0,0
2022-11-02 15:54:08,1016,72,-72,0,1,0,18,39,2,34.3,35.91,1018.16,0,0
2022-11-02 15:54:08,1016,72,-72,0,1,0,18,39,2,34.3,35.91,1018.16,0,0
2022-11-02 15:54:08,1016,72,-72,0,1,0,18,39,2,34.3,35.91,1018.16,0,0
2022-11-02 15:54:08,1016,72,-72,0,1,0,18,39,2,34.3,35.91,1018.16,0,0
2022-11-02 15:54:08,1016,72,-72,0,1,0,18,39,2,34.3,35.91,1018.16,0,0
2022-11-02 15:54:08,1009,70,-72,0,1,0,19,37,2,34.3,35.91,1018.16,0,0
2022-11-02 15:54:08,1009,70,-72,0,1,0,19,37,2,34.3,35.91,1018.16,0,0
2022-11-02 15:54:08,1009,70,-72,0,1,0,19,37,2,34.3,35.91,1018.16,0,0
2022-11-02 15:54:08,1009,70,-72,0,1,0,19,37,2,34.3,35.91,1018.16,0,0
2022-11-02 15:54:08,1009,70,-72,0,1,0,19,37,2,34.3,35.91,1018.16,0,0
2022-11-02 15:54:08,1009,70,-72,0,1,0,19,37,2,34.3,35.91,1018.16,0,0
2022-11-02 15:54:08,1009,70,-72,0,1,0,19,37,2,34.3,35.91,1018.16,0,0
2022-11-02 15:54:08,1009,70,-72,0,1,0,19,37,2,34.3,35.91,1018.16,0,0
2022-11-02 15:54:08,1009,70,-72,0,1,0,19,37,2,34.3,35.91,1018.16,0,0
2022-11-02 15:54:08,1009,70,-72,0,1,0,19,37,2,34.3,35.91,1018.16,0,0
2022-11-02 15:54:08,1009,70,-72,0,1,0,19,37,2,34.3,35.91,1018.16,0,0
2022-11-02 15:54:08,1009,70,-72,0,1,0,19,37,2,34.3,35.91,1018.16,0,0
2022-11-02 15:54:08,1013,64,-74,0,0,0,18,36,-3,34.3,35.91,1018.16,0,0
2022-11-02 15:54:08,1013,64,-74,0,0,0,18,36,-3,34.3,35.91,1018.16,0,0
2022-11-02 15:54:08,1013,64,-74,0,0,0,18,36,-3,34.3,35.91,1018.16,0,0
2022-11-02 15:54:08,1013,64,-74,0,0,0,18,36,-3,34.3,35.91,1018.16,0,0
2022-11-02 15:54:08,1013,64,-74,0,0,0,18,36,-3,34.3,35.91,1018.16,0,0
2022-11-02 15:54:08,1013,64,-74,0,0,0,18,36,-3,34.3,35.91,1018.16,0,0
2022-11-02 15:54:08,1013,64,-74,0,0,0,18,36,-3,34.3,35.91,1018.16,0,0
2022-11-02 15:54:08,1013,64,-74,0,0,0,18,36,-3,34.3,35.91,1018.16,0,0
2022-11-02 15:54:08,1013,64,-74,0,0,0,18,36,-3,34.3,35.91,1018.16,0,0
2022-11-02 15:54:08,1013,64,-74,0,0,0,18,36,-3,34.3,35.91,1018.16,0,0
2022-11-02 15:54:08,1013,64,-74,0,0,0,18,36,-3,34.3,35.91,1018.16,0,0
2022-11-02 15:54:08,1013,64,-74,0,0,0,18,36,-3,34.3,35.91,1018.16,0,0
2022-11-02 15:54:08,1016,80,-70,0,0,0,19,37,2,34.3,35.91,1018.16,0,0
2022-11-02 15:54:08,1016,80,-70,0,0,0,19,37,2,34.3,35.91,1018.16,0,0
2022-11-02 15:54:08,1016,80,-70,0,0,0,19,37,2,34.3,35.91,1018.16,0,0
2022-11-02 15:54:08,1016,80,-70,0,0,0,19,37,2,34.3,35.91,1018.16,0,0
2022-11-02 15:54:08,1016,80,-70,0,0,0,19,37,2,34.3,35.91,1018.16,0,0
2022-11-02 15:54:08,1016,80,-70,0,0,0,19,37,2,34.3,35.91,1018.16,0,0
2022-11-02 15:54:08,1016,80,-70,0,0,0,19,37,2,34.3,35.91,1018.16,0,0
2022-11-02 15:54:08,1016,80,-70,0,0,0,19,37,2,34.3,35.91,1018.16,0,0
2022-11-02 15:54:08,1016,80,-70,0,0,0,19,37,2,34.3,35.91,1018.16,0,0
2022-11-02 15:54:08,1016,80,-70,0,0,0,19,37,2,34.3,35.91,1018.16,0,0
2022-11-02 15:54:08,1016,80,-70,0,0,0,19,37,2,34.3,35.91,1018.16,0,0
2022-11-02 15:54:08,1016,80,-70,0,0,0,19,37,2,34.3,35.91,1018.16,0,0
2022-11-02 15:54:08,1015,72,-70,-1,1,1,19,36,-1,34.3,35.91,1018.16,0,0
2022-11-02 15:54:08,1015,72,-70,-1,1,1,19,36,-1,34.3,35.91,1018.16,0,0
2022-11-02 15:54:08,1015,72,-70,-1,1,1,19,36,-1,34.3,35.91,1018.16,0,0
2022-11-02 15:54:08,1015,72,-70,-1,1,1,19,36,-1,34.3,35.91,1018.16,0,0
2022-11-02 15:54:08,1015,72,-70,-1,1,1,19,36,-1,34.3,35.91,1018.16,0,0
2022-11-02 15:54:08,1015,72,-70,-1,1,1,19,36,-1,34.3,35.91,1018.16,0,0
2022-11-02 15:54:08,1015,72,-70,-1,1,1,19,36,-1,34.3,35.91,1018.16,0,0
2022-11-02 15:54:08,1015,72,-70,-1,1,1,19,36,-1,34.3,35.91,1018.16,0,0
2022-11-02 15:54:08,1015,72,-70,-1,1,1,19,36,-1,34.3,35.91,1018.16,0,0
2022-11-02 15:54:08,1015,72,-70,-1,1,1,19,36,-1,34.3,35.91,1018.16,0,0
2022-11-02 15:54:08,1015,72,-70,-1,1,1,19,36,-1,34.3,35.91,1018.16,0,0
2022-11-02 15:54:08,1015,72,-70,-1,1,1,19,36,-1,34.3,35.91,1018.16,0,0
2022-11-02 15:54:08,1015,66,-72,-1,0,0,21,39,0,34.3,35.91,1018.16,0,0
2022-11-02 15:54:08,1015,66,-72,-1,0,0,21,39,0,34.3,35.91,1018.16,0,0
2022-11-02 15:54:08,1015,66,-72,-1,0,0,21,39,0,34.3,35.91,1018.16,0,0
2022-11-02 15:54:08,1015,66,-72,-1,0,0,21,39,0,34.3,35.91,1018.16,0,0
2022-11-02 15:54:08,1015,66,-72,-1,0,0,21,39,0,34.3,35.91,1018.16,0,0
2022-11-02 15:54:08,1015,66,-72,-1,0,0,21,39,0,34.3,35.91,1018.16,0,0
2022-11-02 15:54:08,1015,66,-72,-1,0,0,21,39,0,34.3,35.91,1018.16,0,0
2022-11-02 15:54:08,1015,66,-72,-1,0,0,21,39,0,34.3,35.91,1018.16,0,0
2022-11-02 15:54:08,1015,66,-72,-1,0,0,21,39,0,34.3,35.91,1018.16,0,0
2022-11-02 15:54:08,1015,66,-72,-1,0,0,21,39,0,34.3,35.91,1018.16,0,0
2022-11-02 15:54:08,1015,66,-72,-1,0,0,21,39,0,34.3,35.91,1018.16,0,0
2022-11-02 15:54:08,1015,66,-72,-1,0,0,21,39,0,34.3,35.91,1018.16,0,0
2022-11-02 15:54:08,1016,74,-70,0,0,0,22,39,-1,34.3,35.91,1018.16,0,0
2022-11-02 15:54:08,1016,74,-70,0,0,0,22,39,-1,34.3,35.91,1018.16,0,0
2022-11-02 15:54:08,1016,74,-70,0,0,0,22,39,-1,34.3,35.91,1018.16,0,0
2022-11-02 15:54:08,1016,74,-70,0,0,0,22,39,-1,34.3,35.91,1018.16,0,0
2022-11-02 15:54:08,1016,74,-70,0,0,0,22,39,-1,34.3,35.91,1018.16,0,0
2022-11-02 15:54:08,1016,74,-70,0,0,0,22,39,-1,34.3,35.91,1018.16,0,0
2022-11-02 15:54:08,1016,74,-70,0,0,0,22,39,-1,34.3,35.91,1018.16,0,0
2022-11-02 15:54:08,1016,74,-70,0,0,0,22,39,-1,34.3,35.91,1018.16,0,0
2022-11-02 15:54:08,1016,74,-70,0,0,0,22,39,-1,34.3,35.91,1018.16,0,0
2022-11-02 15:54:08,1016,74,-70,0,0,0,22,39,-1,34.3,35.91,1018.16,0,0
2022-11-02 15:54:08,1016,74,-70,0,0,0,22,39,-1,34.3,35.91,1018.16,0,0
2022-11-02 15:54:08,1016,74,-70,0,0,0,22,39,-1,34.3,35.91,1018.16,0,0
2022-11-02 15:54:08,1024,74,-60,0,0,0,20,37,-1,34.3,35.91,1018.16,0,0
2022-11-02 15:54:08,1024,74,-60,0,0,0,20,37,-1,34.3,35.91,1018.16,0,0
2022-11-02 15:54:08,1024,74,-60,0,0,0,20,37,-1,34.3,35.91,1018.16,0,0
2022-11-02 15:54:08,1024,74,-60,0,0,0,20,37,-1,34.3,35.91,1018.16,0,0
2022-11-02 15:54:08,1024,74,-60,0,0,0,20,37,-1,34.3,35.91,1018.16,0,0
2022-11-02 15:54:08,1024,74,-60,0,0,0,20,37,-1,34.3,35.91,1018.16,0,0
2022-11-02 15:54:08,1024,74,-60,0,0,0,20,37,-1,34.3,35.91,1018.16,0,0
2022-11-02 15:54:08,1024,74,-60,0,0,0,20,37,-1,34.3,35.91,1018.16,0,0
2022-11-02 15:54:08,1024,74,-60,0,0,0,20,37,-1,34.3,35.91,1018.16,0,0
2022-11-02 15:54:08,1024,74,-60,0,0,0,20,37,-1,34.3,35.91,1018.16,0,0
2022-11-02 15:54:08,1024,74,-60,0,0,0,20,37,-1,34.3,35.91,1018.16,0,0
2022-11-02 15:54:08,1024,74,-60,0,0,0,20,37,-1,34.3,35.91,1018.16,0,0
2022-11-02 15:54:09,1022,74,-56,0,1,0,19,39,0,34.3,35.91,1018.16,0,0
2022-11-02 15:54:09,1022,74,-56,0,1,0,19,39,0,34.3,35.91,1018.16,0,0
2022-11-02 15:54:09,1022,74,-56,0,1,0,19,39,0,34.3,35.91,1018.16,0,0
2022-11-02 15:54:09,1022,74,-56,0,1,0,19,39,0,34.3,35.91,1018.16,0,0
2022-11-02 15:54:09,1022,74,-56,0,1,0,19,39,0,34.3,35.91,1018.16,0,0
2022-11-02 15:54:09,1022,74,-56,0,1,0,19,39,0,34.3,35.91,1018.16,0,0
2022-11-02 15:54:09,1022,74,-56,0,1,0,19,39,0,34.3,35.91,1018.16,0,0
2022-11-02 15:54:09,1022,74,-56,0,1,0,19,39,0,34.3,35.91,1018.16,0,0
2022-11-02 15:54:09,1022,74,-56,0,1,0,19,39,0,34.3,35.91,1018.16,0,0
2022-11-02 15:54:09,1022,74,-56,0,1,0,19,39,0,34.3,35.91,1018.16,0,0
2022-11-02 15:54:09,1022,74,-56,0,1,0,19,39,0,34.3,35.91,1018.16,0,0
2022-11-02 15:54:09,1022,74,-56,0,1,0,19,39,0,34.3,35.91,1018.16,0,0
2022-11-02 15:54:09,1024,81,-62,0,0,0,19,36,-1,34.3,35.91,1018.16,0,0
2022-11-02 15:54:09,1024,81,-62,0,0,0,19,36,-1,34.3,35.91,1018.16,0,0
2022-11-02 15:54:09,1024,81,-62,0,0,0,19,36,-1,34.3,35.91,1018.16,0,0
2022-11-02 15:54:09,1024,81,-62,0,0,0,19,36,-1,34.3,35.91,1018.16,0,0
2022-11-02 15:54:09,1024,81,-62,0,0,0,19,36,-1,34.3,35.91,1018.16,0,0
2022-11-02 15:54:09,1024,81,-62,0,0,0,19,36,-1,34.3,35.91,1018.16,0,0
2022-11-02 15:54:09,1024,81,-62,0,0,0,19,36,-1,34.3,35.91,1018.16,0,0
2022-11-02 15:54:09,1024,81,-62,0,0,0,19,36,-1,34.3,35.91,1018.16,0,0
2022-11-02 15:54:09,1024,81,-62,0,0,0,19,36,-1,34.3,35.91,1018.16,0,0
2022-11-02 15:54:09,1024,81,-62,0,0,0,19,36,-1,34.3,35.91,1018.16,0,0
2022-11-02 15:54:09,1024,81,-62,0,0,0,19,36,-1,34.3,35.91,1018.16,0,0
2022-11-02 15:54:09,1024,81,-62,0,0,0,19,36,-1,34.3,35.91,1018.16,0,0
2022-11-02 15:54:09,1022,70,-64,0,1,0,20,38,-1,34.3,35.92,1018.21,0,0
2022-11-02 15:54:09,1022,70,-64,0,1,0,20,38,-1,34.3,35.92,1018.21,0,0
2022-11-02 15:54:09,1022,70,-64,0,1,0,20,38,-1,34.3,35.92,1018.21,0,0
2022-11-02 15:54:09,1022,70,-64,0,1,0,20,38,-1,34.3,35.92,1018.21,0,0
2022-11-02 15:54:09,1022,70,-64,0,1,0,20,38,-1,34.3,35.92,1018.21,0,0
2022-11-02 15:54:09,1022,70,-64,0,1,0,20,38,-1,34.3,35.92,1018.21,0,0
2022-11-02 15:54:09,1022,70,-64,0,1,0,20,38,-1,34.3,35.92,1018.21,0,0
2022-11-02 15:54:09,1022,70,-64,0,1,0,20,38,-1,34.3,35.92,1018.21,0,0
2022-11-02 15:54:09,1022,70,-64,0,1,0,20,38,-1,34.3,35.92,1018.21,0,0
2022-11-02 15:54:09,1022,70,-64,0,1,0,20,38,-1,34.3,35.92,1018.21,0,0
2022-11-02 15:54:09,1022,70,-64,0,1,0,20,38,-1,34.3,35.92,1018.21,0,0
2022-11-02 15:54:09,1022,70,-64,0,1,0,20,38,-1,34.3,35.92,1018.21,0,0
2022-11-02 15:54:09,1016,74,-54,0,3,0,20,36,1,34.3,35.92,1018.21,0,0
2022-11-02 15:54:09,1016,74,-54,0,3,0,20,36,1,34.3,35.92,1018.21,0,0
2022-11-02 15:54:09,1016,74,-54,0,3,0,20,36,1,34.3,35.92,1018.21,0,0
2022-11-02 15:54:09,1016,74,-54,0,3,0,20,36,1,34.3,35.92,1018.21,0,0
2022-11-02 15:54:09,1016,74,-54,0,3,0,20,36,1,34.3,35.92,1018.21,0,0
2022-11-02 15:54:09,1016,74,-54,0,3,0,20,36,1,34.3,35.92,1018.21,0,0
2022-11-02 15:54:09,1016,74,-54,0,3,0,20,36,1,34.3,35.92,1018.21,0,0
2022-11-02 15:54:09,1016,74,-54,0,3,0,20,36,1,34.3,35.92,1018.21,0,0
2022-11-02 15:54:09,1016,74,-54,0,3,0,20,36,1,34.3,35.92,1018.21,0,0
2022-11-02 15:54:09,1016,74,-54,0,3,0,20,36,1,34.3,35.92,1018.21,0,0
2022-11-02 15:54:09,1016,74,-54,0,3,0,20,36,1,34.3,35.92,1018.21,0,0
2022-11-02 15:54:09,1016,74,-54,0,3,0,20,36,1,34.3,35.92,1018.21,0,0
2022-11-02 15:54:09,1028,64,-44,0,1,0,21,38,-1,34.3,35.92,1018.21,0,0
2022-11-02 15:54:09,1028,64,-44,0,1,0,21,38,-1,34.3,35.92,1018.21,0,0
2022-11-02 15:54:09,1028,64,-44,0,1,0,21,38,-1,34.3,35.92,1018.21,0,0
2022-11-02 15:54:09,1028,64,-44,0,1,0,21,38,-1,34.3,35.92,1018.21,0,0
2022-11-02 15:54:09,1028,64,-44,0,1,0,21,38,-1,34.3,35.92,1018.21,0,0
2022-11-02 15:54:09,1028,64,-44,0,1,0,21,38,-1,34.3,35.92,1018.21,0,0
2022-11-02 15:54:09,1028,64,-44,0,1,0,21,38,-1,34.3,35.92,1018.21,0,0
2022-11-02 15:54:09,1028,64,-44,0,1,0,21,38,-1,34.3,35.92,1018.21,0,0
2022-11-02 15:54:09,1028,64,-44,0,1,0,21,38,-1,34.3,35.92,1018.21,0,0
2022-11-02 15:54:09,1028,64,-44,0,1,0,21,38,-1,34.3,35.92,1018.21,0,0
2022-11-02 15:54:09,1028,64,-44,0,1,0,21,38,-1,34.3,35.92,1018.21,0,0
2022-11-02 15:54:09,1028,64,-44,0,1,0,21,38,-1,34.3,35.92,1018.21,0,0
2022-11-02 15:54:09,1015,74,-46,0,0,0,20,38,2,34.3,35.92,1018.21,0,0
2022-11-02 15:54:09,1015,74,-46,0,0,0,20,38,2,34.3,35.92,1018.21,0,0
2022-11-02 15:54:09,1015,74,-46,0,0,0,20,38,2,34.3,35.92,1018.21,0,0
2022-11-02 15:54:09,1015,74,-46,0,0,0,20,38,2,34.3,35.92,1018.21,0,0
2022-11-02 15:54:09,1015,74,-46,0,0,0,20,38,2,34.3,35.92,1018.21,0,0
2022-11-02 15:54:09,1015,74,-46,0,0,0,20,38,2,34.3,35.92,1018.21,0,0
2022-11-02 15:54:09,1015,74,-46,0,0,0,20,38,2,34.3,35.92,1018.21,0,0
2022-11-02 15:54:09,1015,74,-46,0,0,0,20,38,2,34.3,35.92,1018.21,0,0
2022-11-02 15:54:09,1015,74,-46,0,0,0,20,38,2,34.3,35.92,1018.21,0,0
2022-11-02 15:54:09,1015,74,-46,0,0,0,20,38,2,34.3,35.92,1018.21,0,0
2022-11-02 15:54:09,1015,74,-46,0,0,0,20,38,2,34.3,35.92,1018.21,0,0
2022-11-02 15:54:09,1015,74,-46,0,0,0,20,38,2,34.3,35.92,1018.21,0,0
2022-11-02 15:54:09,1018,70,-44,0,0,0,20,37,5,34.3,35.92,1018.21,0,0
2022-11-02 15:54:09,1018,70,-44,0,0,0,20,37,5,34.3,35.92,1018.21,0,0
2022-11-02 15:54:09,1018,70,-44,0,0,0,20,37,5,34.3,35.92,1018.21,0,0
2022-11-02 15:54:09,1018,70,-44,0,0,0,20,37,5,34.3,35.92,1018.21,0,0
2022-11-02 15:54:09,1018,70,-44,0,0,0,20,37,5,34.3,35.92,1018.21,0,0
2022-11-02 15:54:09,1018,70,-44,0,0,0,20,37,5,34.3,35.92,1018.21,0,0
2022-11-02 15:54:09,1018,70,-44,0,0,0,20,37,5,34.3,35.92,1018.21,0,0
2022-11-02 15:54:09,1018,70,-44,0,0,0,20,37,5,34.3,35.92,1018.21,0,0
2022-11-02 15:54:09,1018,70,-44,0,0,0,20,37,5,34.3,35.92,1018.21,0,0
2022-11-02 15:54:09,1018,70,-44,0,0,0,20,37,5,34.3,35.92,1018.21,0,0
2022-11-02 15:54:09,1018,70,-44,0,0,0,20,37,5,34.3,35.92,1018.21,0,0
2022-11-02 15:54:09,1018,70,-44,0,0,0,20,37,5,34.3,35.92,1018.21,0,0
2022-11-02 15:54:09,1013,74,-52,0,0,0,18,38,3,34.3,35.92,1018.21,0,0
2022-11-02 15:54:09,1013,74,-52,0,0,0,18,38,3,34.3,35.92,1018.21,0,0
2022-11-02 15:54:09,1013,74,-52,0,0,0,18,38,3,34.3,35.92,1018.21,0,0
2022-11-02 15:54:09,1013,74,-52,0,0,0,18,38,3,34.3,35.92,1018.21,0,0
2022-11-02 15:54:09,1013,74,-52,0,0,0,18,38,3,34.3,35.92,1018.21,0,0
2022-11-02 15:54:09,1013,74,-52,0,0,0,18,38,3,34.3,35.92,1018.21,0,0
2022-11-02 15:54:09,1013,74,-52,0,0,0,18,38,3,34.3,35.92,1018.21,0,0
2022-11-02 15:54:09,1013,74,-52,0,0,0,18,38,3,34.3,35.92,1018.21,0,0
2022-11-02 15:54:09,1013,74,-52,0,0,0,18,38,3,34.3,35.92,1018.21,0,0
2022-11-02 15:54:09,1013,74,-52,0,0,0,18,38,3,34.3,35.92,1018.21,0,0
2022-11-02 15:54:09,1013,74,-52,0,0,0,18,38,3,34.3,35.92,1018.21,0,0
2022-11-02 15:54:09,1013,74,-52,0,0,0,18,38,3,34.3,35.92,1018.21,0,0
2022-11-02 15:54:09,1018,74,-64,0,0,0,21,38,1,34.3,35.92,1018.21,0,0
2022-11-02 15:54:09,1018,74,-64,0,0,0,21,38,1,34.3,35.92,1018.21,0,0
2022-11-02 15:54:09,1018,74,-64,0,0,0,21,38,1,34.3,35.92,1018.21,0,0
2022-11-02 15:54:09,1018,74,-64,0,0,0,21,38,1,34.3,35.92,1018.21,0,0
2022-11-02 15:54:09,1018,74,-64,0,0,0,21,38,1,34.3,35.92,1018.21,0,0
2022-11-02 15:54:09,1018,74,-64,0,0,0,21,38,1,34.3,35.92,1018.21,0,0
2022-11-02 15:54:09,1018,74,-64,0,0,0,21,38,1,34.3,35.92,1018.21,0,0
2022-11-02 15:54:09,1018,74,-64,0,0,0,21,38,1,34.3,35.92,1018.21,0,0
2022-11-02 15:54:09,1018,74,-64,0,0,0,21,38,1,34.3,35.92,1018.21,0,0
2022-11-02 15:54:09,1018,74,-64,0,0,0,21,38,1,34.3,35.92,1018.21,0,0
2022-11-02 15:54:09,1018,74,-64,0,0,0,21,38,1,34.3,35.92,1018.21,0,0
2022-11-02 15:54:09,1018,74,-64,0,0,0,21,38,1,34.3,35.92,1018.21,0,0
2022-11-02 15:54:09,1024,72,-52,0,0,1,21,36,3,34.3,35.92,1018.21,0,0
2022-11-02 15:54:09,1024,72,-52,0,0,1,21,36,3,34.3,35.92,1018.21,0,0
2022-11-02 15:54:09,1024,72,-52,0,0,1,21,36,3,34.3,35.92,1018.21,0,0
2022-11-02 15:54:09,1024,72,-52,0,0,1,21,36,3,34.3,35.92,1018.21,0,0
2022-11-02 15:54:09,1024,72,-52,0,0,1,21,36,3,34.3,35.92,1018.21,0,0
2022-11-02 15:54:09,1024,72,-52,0,0,1,21,36,3,34.3,35.92,1018.21,0,0
2022-11-02 15:54:09,1024,72,-52,0,0,1,21,36,3,34.3,35.92,1018.21,0,0
2022-11-02 15:54:09,1024,72,-52,0,0,1,21,36,3,34.3,35.92,1018.21,0,0
2022-11-02 15:54:09,1024,72,-52,0,0,1,21,36,3,34.3,35.92,1018.21,0,0
2022-11-02 15:54:09,1024,72,-52,0,0,1,21,36,3,34.3,35.92,1018.21,0,0
2022-11-02 15:54:09,1024,72,-52,0,0,1,21,36,3,34.3,35.92,1018.21,0,0
2022-11-02 15:54:09,1024,72,-52,0,0,1,21,36,3,34.3,35.92,1018.21,0,0
2022-11-02 15:54:10,1011,68,-52,0,0,1,20,38,1,34.3,35.92,1018.21,0,0
2022-11-02 15:54:10,1011,68,-52,0,0,1,20,38,1,34.3,35.92,1018.21,0,0
2022-11-02 15:54:10,1011,68,-52,0,0,1,20,38,1,34.3,35.92,1018.21,0,0
2022-11-02 15:54:10,1011,68,-52,0,0,1,20,38,1,34.3,35.92,1018.21,0,0
2022-11-02 15:54:10,1011,68,-52,0,0,1,20,38,1,34.3,35.92,1018.21,0,0
2022-11-02 15:54:10,1011,68,-52,0,0,1,20,38,1,34.3,35.92,1018.21,0,0
2022-11-02 15:54:10,1011,68,-52,0,0,1,20,38,1,34.3,35.92,1018.21,0,0
2022-11-02 15:54:10,1011,68,-52,0,0,1,20,38,1,34.3,35.92,1018.21,0,0
2022-11-02 15:54:10,1011,68,-52,0,0,1,20,38,1,34.3,35.92,1018.21,0,0
2022-11-02 15:54:10,1011,68,-52,0,0,1,20,38,1,34.3,35.92,1018.21,0,0
2022-11-02 15:54:10,1011,68,-52,0,0,1,20,38,1,34.3,35.92,1018.21,0,0
2022-11-02 15:54:10,1011,68,-52,0,0,1,20,38,1,34.3,35.92,1018.21,0,0
2022-11-02 15:54:10,1026,60,-58,1,0,0,20,36,0,34.3,35.92,1018.21,0,0
2022-11-02 15:54:10,1026,60,-58,1,0,0,20,36,0,34.3,35.92,1018.21,0,0
2022-11-02 15:54:10,1026,60,-58,1,0,0,20,36,0,34.3,35.92,1018.21,0,0
2022-11-02 15:54:10,1026,60,-58,1,0,0,20,36,0,34.3,35.92,1018.21,0,0
2022-11-02 15:54:10,1026,60,-58,1,0,0,20,36,0,34.3,35.92,1018.21,0,0
2022-11-02 15:54:10,1026,60,-58,1,0,0,20,36,0,34.3,35.92,1018.21,0,0
2022-11-02 15:54:10,1026,60,-58,1,0,0,20,36,0,34.3,35.92,1018.21,0,0
2022-11-02 15:54:10,1026,60,-58,1,0,0,20,36,0,34.3,35.92,1018.21,0,0
2022-11-02 15:54:10,1026,60,-58,1,0,0,20,36,0,34.3,35.92,1018.21,0,0
2022-11-02 15:54:10,1026,60,-58,1,0,0,20,36,0,34.3,35.92,1018.21,0,0
2022-11-02 15:54:10,1026,60,-58,1,0,0,20,36,0,34.3,35.92,1018.21,0,0
2022-11-02 15:54:10,1026,60,-58,1,0,0,20,36,0,34.3,35.92,1018.21,0,0
2022-11-02 15:54:10,1011,64,-62,0,0,0,19,37,4,34.3,35.92,1018.21,0,0
2022-11-02 15:54:10,1011,64,-62,0,0,0,19,37,4,34.3,35.92,1018.21,0,0
2022-11-02 15:54:10,1011,64,-62,0,0,0,19,37,4,34.3,35.92,1018.21,0,0
2022-11-02 15:54:10,1011,64,-62,0,0,0,19,37,4,34.3,35.92,1018.21,0,0
2022-11-02 15:54:10,1011,64,-62,0,0,0,19,37,4,34.3,35.92,1018.21,0,0
2022-11-02 15:54:10,1011,64,-62,0,0,0,19,37,4,34.3,35.92,1018.21,0,0
2022-11-02 15:54:10,1011,64,-62,0,0,0,19,37,4,34.3,35.88,1018.14,0,0
2022-11-02 15:54:10,1011,64,-62,0,0,0,19,37,4,34.3,35.88,1018.14,0,0
2022-11-02 15:54:10,1011,64,-62,0,0,0,19,37,4,34.3,35.88,1018.14,0,0
2022-11-02 15:54:10,1011,64,-62,0,0,0,19,37,4,34.3,35.88,1018.14,0,0
2022-11-02 15:54:10,1011,64,-62,0,0,0,19,37,4,34.3,35.88,1018.14,0,0
2022-11-02 15:54:10,1011,64,-62,0,0,0,19,37,4,34.3,35.88,1018.14,0,0
2022-11-02 15:54:10,1022,68,-60,0,0,0,21,38,4,34.3,35.88,1018.14,0,0
2022-11-02 15:54:10,1022,68,-60,0,0,0,21,38,4,34.3,35.88,1018.14,0,0
2022-11-02 15:54:10,1022,68,-60,0,0,0,21,38,4,34.3,35.88,1018.14,0,0
2022-11-02 15:54:10,1022,68,-60,0,0,0,21,38,4,34.3,35.88,1018.14,0,0
2022-11-02 15:54:10,1022,68,-60,0,0,0,21,38,4,34.3,35.88,1018.14,0,0
2022-11-02 15:54:10,1022,68,-60,0,0,0,21,38,4,34.3,35.88,1018.14,0,0
2022-11-02 15:54:10,1022,68,-60,0,0,0,21,38,4,34.3,35.88,1018.14,0,0
2022-11-02 15:54:10,1022,68,-60,0,0,0,21,38,4,34.3,35.88,1018.14,0,0
2022-11-02 15:54:10,1022,68,-60,0,0,0,21,38,4,34.3,35.88,1018.14,0,0
2022-11-02 15:54:10,1022,68,-60,0,0,0,21,38,4,34.3,35.88,1018.14,0,0
2022-11-02 15:54:10,1022,68,-60,0,0,0,21,38,4,34.3,35.88,1018.14,0,0
2022-11-02 15:54:10,1022,68,-60,0,0,0,21,38,4,34.3,35.88,1018.14,0,0
2022-11-02 15:54:10,1020,68,-52,0,0,0,21,39,4,34.3,35.88,1018.14,0,0
2022-11-02 15:54:10,1020,68,-52,0,0,0,21,39,4,34.3,35.88,1018.14,0,0
2022-11-02 15:54:10,1020,68,-52,0,0,0,21,39,4,34.3,35.88,1018.14,0,0
2022-11-02 15:54:10,1020,68,-52,0,0,0,21,39,4,34.3,35.88,1018.14,0,0
2022-11-02 15:54:10,1020,68,-52,0,0,0,21,39,4,34.3,35.88,1018.14,0,0
2022-11-02 15:54:10,1020,68,-52,0,0,0,21,39,4,34.3,35.88,1018.14,0,0
2022-11-02 15:54:10,1020,68,-52,0,0,0,21,39,4,34.3,35.88,1018.14,0,0
2022-11-02 15:54:10,1020,68,-52,0,0,0,21,39,4,34.3,35.88,1018.14,0,0
2022-11-02 15:54:10,1020,68,-52,0,0,0,21,39,4,34.3,35.88,1018.14,0,0
2022-11-02 15:54:10,1020,68,-52,0,0,0,21,39,4,34.3,35.88,1018.14,0,0
2022-11-02 15:54:10,1020,68,-52,0,0,0,21,39,4,34.3,35.88,1018.14,0,0
2022-11-02 15:54:10,1020,68,-52,0,0,0,21,39,4,34.3,35.88,1018.14,0,0
2022-11-02 15:54:10,1020,70,-58,0,0,0,19,39,2,34.3,35.88,1018.14,0,0
2022-11-02 15:54:10,1020,70,-58,0,0,0,19,39,2,34.3,35.88,1018.14,0,0
2022-11-02 15:54:10,1020,70,-58,0,0,0,19,39,2,34.3,35.88,1018.14,0,0
2022-11-02 15:54:10,1020,70,-58,0,0,0,19,39,2,34.3,35.88,1018.14,0,0
2022-11-02 15:54:10,1020,70,-58,0,0,0,19,39,2,34.3,35.88,1018.14,0,0
2022-11-02 15:54:10,1020,70,-58,0,0,0,19,39,2,34.3,35.88,1018.14,0,0
2022-11-02 15:54:10,1020,70,-58,0,0,0,19,39,2,34.3,35.88,1018.14,0,0
2022-11-02 15:54:10,1020,70,-58,0,0,0,19,39,2,34.3,35.88,1018.14,0,0
2022-11-02 15:54:10,1020,70,-58,0,0,0,19,39,2,34.3,35.88,1018.14,0,0
2022-11-02 15:54:10,1020,70,-58,0,0,0,19,39,2,34.3,35.88,1018.14,0,0
2022-11-02 15:54:10,1020,70,-58,0,0,0,19,39,2,34.3,35.88,1018.14,0,0
2022-11-02 15:54:10,1020,70,-58,0,0,0,19,39,2,34.3,35.88,1018.14,0,0
2022-11-02 15:54:10,1026,64,-50,0,0,0,20,38,0,34.3,35.88,1018.14,0,0
2022-11-02 15:54:10,1026,64,-50,0,0,0,20,38,0,34.3,35.88,1018.14,0,0
2022-11-02 15:54:10,1026,64,-50,0,0,0,20,38,0,34.3,35.88,1018.14,0,0
2022-11-02 15:54:10,1026,64,-50,0,0,0,20,38,0,34.3,35.88,1018.14,0,0
2022-11-02 15:54:10,1026,64,-50,0,0,0,20,38,0,34.3,35.88,1018.14,0,0
2022-11-02 15:54:10,1026,64,-50,0,0,0,20,38,0,34.3,35.88,1018.14,0,0
2022-11-02 15:54:10,1026,64,-50,0,0,0,20,38,0,34.3,35.88,1018.14,0,0
2022-11-02 15:54:10,1026,64,-50,0,0,0,20,38,0,34.3,35.88,1018.14,0,0
2022-11-02 15:54:10,1026,64,-50,0,0,0,20,38,0,34.3,35.88,1018.14,0,0
2022-11-02 15:54:10,1026,64,-50,0,0,0,20,38,0,34.3,35.88,1018.14,0,0
2022-11-02 15:54:10,1026,64,-50,0,0,0,20,38,0,34.3,35.88,1018.14,0,0
2022-11-02 15:54:10,1026,64,-50,0,0,0,20,38,0,34.3,35.88,1018.14,0,0
2022-11-02 15:54:10,1013,60,-50,0,1,0,21,36,-1,34.3,35.88,1018.14,0,0
2022-11-02 15:54:10,1013,60,-50,0,1,0,21,36,-1,34.3,35.88,1018.14,0,0
2022-11-02 15:54:10,1013,60,-50,0,1,0,21,36,-1,34.3,35.88,1018.14,0,0
2022-11-02 15:54:10,1013,60,-50,0,1,0,21,36,-1,34.3,35.88,1018.14,0,0
2022-11-02 15:54:10,1013,60,-50,0,1,0,21,36,-1,34.3,35.88,1018.14,0,0
2022-11-02 15:54:10,1013,60,-50,0,1,0,21,36,-1,34.3,35.88,1018.14,0,0
2022-11-02 15:54:10,1013,60,-50,0,1,0,21,36,-1,34.3,35.88,1018.14,0,0
2022-11-02 15:54:10,1013,60,-50,0,1,0,21,36,-1,34.3,35.88,1018.14,0,0
2022-11-02 15:54:10,1013,60,-50,0,1,0,21,36,-1,34.3,35.88,1018.14,0,0
2022-11-02 15:54:10,1013,60,-50,0,1,0,21,36,-1,34.3,35.88,1018.14,0,0
2022-11-02 15:54:10,1013,60,-50,0,1,0,21,36,-1,34.3,35.88,1018.14,0,0
2022-11-02 15:54:10,1013,60,-50,0,1,0,21,36,-1,34.3,35.88,1018.14,0,0
2022-11-02 15:54:10,1024,60,-48,0,2,0,20,35,0,34.3,35.88,1018.14,0,0
2022-11-02 15:54:10,1024,60,-48,0,2,0,20,35,0,34.3,35.88,1018.14,0,0
2022-11-02 15:54:10,1024,60,-48,0,2,0,20,35,0,34.3,35.88,1018.14,0,0
2022-11-02 15:54:10,1024,60,-48,0,2,0,20,35,0,34.3,35.88,1018.14,0,0
2022-11-02 15:54:10,1024,60,-48,0,2,0,20,35,0,34.3,35.88,1018.14,0,0
2022-11-02 15:54:10,1024,60,-48,0,2,0,20,35,0,34.3,35.88,1018.14,0,0
2022-11-02 15:54:10,1024,60,-48,0,2,0,20,35,0,34.3,35.88,1018.14,0,0
2022-11-02 15:54:10,1024,60,-48,0,2,0,20,35,0,34.3,35.88,1018.14,0,0
2022-11-02 15:54:10,1024,60,-48,0,2,0,20,35,0,34.3,35.88,1018.14,0,0
2022-11-02 15:54:10,1024,60,-48,0,2,0,20,35,0,34.3,35.88,1018.14,0,0
2022-11-02 15:54:10,1024,60,-48,0,2,0,20,35,0,34.3,35.88,1018.14,0,0
2022-11-02 15:54:10,1024,60,-48,0,2,0,20,35,0,34.3,35.88,1018.14,0,0
2022-11-02 15:54:10,1020,68,-31,0,0,0,21,40,4,34.3,35.88,1018.14,0,0
2022-11-02 15:54:10,1020,68,-31,0,0,0,21,40,4,34.3,35.88,1018.14,0,0
2022-11-02 15:54:10,1020,68,-31,0,0,0,21,40,4,34.3,35.88,1018.14,0,0
2022-11-02 15:54:10,1020,68,-31,0,0,0,21,40,4,34.3,35.88,1018.14,0,0
2022-11-02 15:54:10,1020,68,-31,0,0,0,21,40,4,34.3,35.88,1018.14,0,0
2022-11-02 15:54:10,1020,68,-31,0,0,0,21,40,4,34.3,35.88,1018.14,0,0
2022-11-02 15:54:10,1020,68,-31,0,0,0,21,40,4,34.3,35.88,1018.14,0,0
2022-11-02 15:54:10,1020,68,-31,0,0,0,21,40,4,34.3,35.88,1018.14,0,0
2022-11-02 15:54:10,1020,68,-31,0,0,0,21,40,4,34.3,35.88,1018.14,0,0
2022-11-02 15:54:10,1020,68,-31,0,0,0,21,40,4,34.3,35.88,1018.14,0,0
2022-11-02 15:54:10,1020,68,-31,0,0,0,21,40,4,34.3,35.88,1018.14,0,0
2022-11-02 15:54:10,1020,68,-31,0,0,0,21,40,4,34.3,35.88,1018.14,0,0
2022-11-02 15:54:10,1016,70,-48,0,0,0,20,40,4,34.3,35.88,1018.14,0,0
2022-11-02 15:54:10,1016,70,-48,0,0,0,20,40,4,34.3,35.88,1018.14,0,0
2022-11-02 15:54:10,1016,70,-48,0,0,0,20,40,4,34.3,35.88,1018.14,0,0
2022-11-02 15:54:10,1016,70,-48,0,0,0,20,40,4,34.3,35.88,1018.14,0,0
2022-11-02 15:54:10,1016,70,-48,0,0,0,20,40,4,34.3,35.88,1018.14,0,0
2022-11-02 15:54:10,1016,70,-48,0,0,0,20,40,4,34.3,35.88,1018.14,0,0
2022-11-02 15:54:10,1016,70,-48,0,0,0,20,40,4,34.3,35.88,1018.14,0,0
2022-11-02 15:54:10,1016,70,-48,0,0,0,20,40,4,34.3,35.88,1018.14,0,0
2022-11-02 15:54:10,1016,70,-48,0,0,0,20,40,4,34.3,35.88,1018.14,0,0
2022-11-02 15:54:10,1016,70,-48,0,0,0,20,40,4,34.3,35.88,1018.14,0,0
2022-11-02 15:54:10,1016,70,-48,0,0,0,20,40,4,34.3,35.88,1018.14,0,0
2022-11-02 15:54:10,1016,70,-48,0,0,0,20,40,4,34.3,35.88,1018.14,0,0
2022-11-02 15:54:11,1020,70,-46,0,0,0,21,40,0,34.3,35.88,1018.14,0,0
2022-11-02 15:54:11,1020,70,-46,0,0,0,21,40,0,34.3,35.88,1018.14,0,0
2022-11-02 15:54:11,1020,70,-46,0,0,0,21,40,0,34.3,35.88,1018.14,0,0
2022-11-02 15:54:11,1020,70,-46,0,0,0,21,40,0,34.3,35.88,1018.14,0,0
2022-11-02 15:54:11,1020,70,-46,0,0,0,21,40,0,34.3,35.88,1018.14,0,0
2022-11-02 15:54:11,1020,70,-46,0,0,0,21,40,0,34.3,35.88,1018.14,0,0
2022-11-02 15:54:11,1020,70,-46,0,0,0,21,40,0,34.3,35.88,1018.14,0,0
2022-11-02 15:54:11,1020,70,-46,0,0,0,21,40,0,34.3,35.88,1018.14,0,0
2022-11-02 15:54:11,1020,70,-46,0,0,0,21,40,0,34.3,35.88,1018.14,0,0
2022-11-02 15:54:11,1020,70,-46,0,0,0,21,40,0,34.3,35.88,1018.14,0,0
2022-11-02 15:54:11,1020,70,-46,0,0,0,21,40,0,34.3,35.88,1018.14,0,0
2022-11-02 15:54:11,1020,70,-46,0,0,0,21,40,0,34.3,35.88,1018.14,0,0
2022-11-02 15:54:11,1020,64,-44,0,0,0,20,39,0,34.3,35.88,1018.14,0,0
2022-11-02 15:54:11,1020,64,-44,0,0,0,20,39,0,34.3,35.88,1018.14,0,0
2022-11-02 15:54:11,1020,64,-44,0,0,0,20,39,0,34.3,35.88,1018.14,0,0
2022-11-02 15:54:11,1020,64,-44,0,0,0,20,39,0,34.3,35.88,1018.14,0,0
2022-11-02 15:54:11,1020,64,-44,0,0,0,20,39,0,34.3,35.88,1018.14,0,0
2022-11-02 15:54:11,1020,64,-44,0,0,0,20,39,0,34.3,35.88,1018.14,0,0
2022-11-02 15:54:11,1020,64,-44,0,0,0,20,39,0,34.3,35.88,1018.14,0,0
2022-11-02 15:54:11,1020,64,-44,0,0,0,20,39,0,34.3,35.88,1018.14,0,0
2022-11-02 15:54:11,1020,64,-44,0,0,0,20,39,0,34.3,35.88,1018.14,0,0
2022-11-02 15:54:11,1020,64,-44,0,0,0,20,39,0,34.3,35.88,1018.14,0,0
2022-11-02 15:54:11,1020,64,-44,0,0,0,20,39,0,34.3,35.88,1018.14,0,0
2022-11-02 15:54:11,1020,64,-44,0,0,0,20,39,0,34.3,35.88,1018.14,0,0
2022-11-02 15:54:11,1013,68,-56,0,0,0,23,38,0,34.3,36.11,1018.13,0,0
2022-11-02 15:54:11,1013,68,-56,0,0,0,23,38,0,34.3,36.11,1018.13,0,0
2022-11-02 15:54:11,1013,68,-56,0,0,0,23,38,0,34.3,36.11,1018.13,0,0
2022-11-02 15:54:11,1013,68,-56,0,0,0,23,38,0,34.3,36.11,1018.13,0,0
2022-11-02 15:54:11,1013,68,-56,0,0,0,23,38,0,34.3,36.11,1018.13,0,0
2022-11-02 15:54:11,1013,68,-56,0,0,0,23,38,0,34.3,36.11,1018.13,0,0
2022-11-02 15:54:11,1013,68,-56,0,0,0,23,38,0,34.3,36.11,1018.13,0,0
2022-11-02 15:54:11,1013,68,-56,0,0,0,23,38,0,34.3,36.11,1018.13,0,0
2022-11-02 15:54:11,1013,68,-56,0,0,0,23,38,0,34.3,36.11,1018.13,0,0
2022-11-02 15:54:11,1013,68,-56,0,0,0,23,38,0,34.3,36.11,1018.13,0,0
2022-11-02 15:54:11,1013,68,-56,0,0,0,23,38,0,34.3,36.11,1018.13,0,0
2022-11-02 15:54:11,1013,68,-56,0,0,0,23,38,0,34.3,36.11,1018.13,0,0
2022-11-02 15:54:11,1015,74,-52,0,0,0,21,38,4,34.3,36.11,1018.13,0,0
2022-11-02 15:54:11,1015,74,-52,0,0,0,21,38,4,34.3,36.11,1018.13,0,0
2022-11-02 15:54:11,1015,74,-52,0,0,0,21,38,4,34.3,36.11,1018.13,0,0
2022-11-02 15:54:11,1015,74,-52,0,0,0,21,38,4,34.3,36.11,1018.13,0,0
2022-11-02 15:54:11,1015,74,-52,0,0,0,21,38,4,34.3,36.11,1018.13,0,0
2022-11-02 15:54:11,1015,74,-52,0,0,0,21,38,4,34.3,36.11,1018.13,0,0
2022-11-02 15:54:11,1015,74,-52,0,0,0,21,38,4,34.3,36.11,1018.13,0,0
2022-11-02 15:54:11,1015,74,-52,0,0,0,21,38,4,34.3,36.11,1018.13,0,0
2022-11-02 15:54:11,1015,74,-52,0,0,0,21,38,4,34.3,36.11,1018.13,0,0
2022-11-02 15:54:11,1015,74,-52,0,0,0,21,38,4,34.3,36.11,1018.13,0,0
2022-11-02 15:54:11,1015,74,-52,0,0,0,21,38,4,34.3,36.11,1018.13,0,0
2022-11-02 15:54:11,1015,74,-52,0,0,0,21,38,4,34.3,36.11,1018.13,0,0
2022-11-02 15:54:11,1016,64,-60,0,0,0,22,38,0,34.3,36.11,1018.13,0,0
2022-11-02 15:54:11,1016,64,-60,0,0,0,22,38,0,34.3,36.11,1018.13,0,0
2022-11-02 15:54:11,1016,64,-60,0,0,0,22,38,0,34.3,36.11,1018.13,0,0
2022-11-02 15:54:11,1016,64,-60,0,0,0,22,38,0,34.3,36.11,1018.13,0,0
2022-11-02 15:54:11,1016,64,-60,0,0,0,22,38,0,34.3,36.11,1018.13,0,0
2022-11-02 15:54:11,1016,64,-60,0,0,0,22,38,0,34.3,36.11,1018.13,0,0
2022-11-02 15:54:11,1016,64,-60,0,0,0,22,38,0,34.3,36.11,1018.13,0,0
2022-11-02 15:54:11,1016,64,-60,0,0,0,22,38,0,34.3,36.11,1018.13,0,0
2022-11-02 15:54:11,1016,64,-60,0,0,0,22,38,0,34.3,36.11,1018.13,0,0
2022-11-02 15:54:11,1016,64,-60,0,0,0,22,38,0,34.3,36.11,1018.13,0,0
2022-11-02 15:54:11,1016,64,-60,0,0,0,22,38,0,34.3,36.11,1018.13,0,0
2022-11-02 15:54:11,1016,64,-60,0,0,0,22,38,0,34.3,36.11,1018.13,0,0
2022-11-02 15:54:11,1013,68,-56,0,0,0,21,39,0,34.3,36.11,1018.13,0,0
2022-11-02 15:54:11,1013,68,-56,0,0,0,21,39,0,34.3,36.11,1018.13,0,0
2022-11-02 15:54:11,1013,68,-56,0,0,0,21,39,0,34.3,36.11,1018.13,0,0
2022-11-02 15:54:11,1013,68,-56,0,0,0,21,39,0,34.3,36.11,1018.13,0,0
2022-11-02 15:54:11,1013,68,-56,0,0,0,21,39,0,34.3,36.11,1018.13,0,0
2022-11-02 15:54:11,1013,68,-56,0,0,0,21,39,0,34.3,36.11,1018.13,0,0
2022-11-02 15:54:11,1013,68,-56,0,0,0,21,39,0,34.3,36.11,1018.13,0,0
2022-11-02 15:54:11,1013,68,-56,0,0,0,21,39,0,34.3,36.11,1018.13,0,0
2022-11-02 15:54:11,1013,68,-56,0,0,0,21,39,0,34.3,36.11,1018.13,0,0
2022-11-02 15:54:11,1013,68,-56,0,0,0,21,39,0,34.3,36.11,1018.13,0,0
2022-11-02 15:54:11,1013,68,-56,0,0,0,21,39,0,34.3,36.11,1018.13,0,0
2022-11-02 15:54:11,1013,68,-56,0,0,0,21,39,0,34.3,36.11,1018.13,0,0
2022-11-02 15:54:11,1032,56,-48,0,0,0,22,39,2,34.3,36.11,1018.13,0,0
2022-11-02 15:54:11,1032,56,-48,0,0,0,22,39,2,34.3,36.11,1018.13,0,0
2022-11-02 15:54:11,1032,56,-48,0,0,0,22,39,2,34.3,36.11,1018.13,0,0
2022-11-02 15:54:11,1032,56,-48,0,0,0,22,39,2,34.3,36.11,1018.13,0,0
2022-11-02 15:54:11,1032,56,-48,0,0,0,22,39,2,34.3,36.11,1018.13,0,0
2022-11-02 15:54:11,1032,56,-48,0,0,0,22,39,2,34.3,36.11,1018.13,0,0
2022-11-02 15:54:11,1032,56,-48,0,0,0,22,39,2,34.3,36.11,1018.13,0,0
2022-11-02 15:54:11,1032,56,-48,0,0,0,22,39,2,34.3,36.11,1018.13,0,0
2022-11-02 15:54:11,1032,56,-48,0,0,0,22,39,2,34.3,36.11,1018.13,0,0
2022-11-02 15:54:11,1032,56,-48,0,0,0,22,39,2,34.3,36.11,1018.13,0,0
2022-11-02 15:54:11,1032,56,-48,0,0,0,22,39,2,34.3,36.11,1018.13,0,0
2022-11-02 15:54:11,1032,56,-48,0,0,0,22,39,2,34.3,36.11,1018.13,0,0
2022-11-02 15:54:11,1022,64,-50,-1,0,0,19,36,0,34.3,36.11,1018.13,0,0
2022-11-02 15:54:11,1022,64,-50,-1,0,0,19,36,0,34.3,36.11,1018.13,0,0
2022-11-02 15:54:11,1022,64,-50,-1,0,0,19,36,0,34.3,36.11,1018.13,0,0
2022-11-02 15:54:11,1022,64,-50,-1,0,0,19,36,0,34.3,36.11,1018.13,0,0
2022-11-02 15:54:11,1022,64,-50,-1,0,0,19,36,0,34.3,36.11,1018.13,0,0
2022-11-02 15:54:11,1022,64,-50,-1,0,0,19,36,0,34.3,36.11,1018.13,0,0
2022-11-02 15:54:11,1022,64,-50,-1,0,0,19,36,0,34.3,36.11,1018.13,0,0
2022-11-02 15:54:11,1022,64,-50,-1,0,0,19,36,0,34.3,36.11,1018.13,0,0
2022-11-02 15:54:11,1022,64,-50,-1,0,0,19,36,0,34.3,36.11,1018.13,0,0
2022-11-02 15:54:11,1022,64,-50,-1,0,0,19,36,0,34.3,36.11,1018.13,0,0
2022-11-02 15:54:11,1022,64,-50,-1,0,0,19,36,0,34.3,36.11,1018.13,0,0
2022-11-02 15:54:11,1022,64,-50,-1,0,0,19,36,0,34.3,36.11,1018.13,0,0
2022-11-02 15:54:11,1020,70,-70,-1,0,0,21,36,3,34.3,36.11,1018.13,0,0
2022-11-02 15:54:11,1020,70,-70,-1,0,0,21,36,3,34.3,36.11,1018.13,0,0
2022-11-02 15:54:11,1020,70,-70,-1,0,0,21,36,3,34.3,36.11,1018.13,0,0
2022-11-02 15:54:11,1020,70,-70,-1,0,0,21,36,3,34.3,36.11,1018.13,0,0
2022-11-02 15:54:11,1020,70,-70,-1,0,0,21,36,3,34.3,36.11,1018.13,0,0
2022-11-02 15:54:11,1020,70,-70,-1,0,0,21,36,3,34.3,36.11,1018.13,0,0
2022-11-02 15:54:11,1020,70,-70,-1,0,0,21,36,3,34.3,36.11,1018.13,0,0
2022-11-02 15:54:11,1020,70,-70,-1,0,0,21,36,3,34.3,36.11,1018.13,0,0
2022-11-02 15:54:11,1020,70,-70,-1,0,0,21,36,3,34.3,36.11,1018.13,0,0
2022-11-02 15:54:11,1020,70,-70,-1,0,0,21,36,3,34.3,36.11,1018.13,0,0
2022-11-02 15:54:11,1020,70,-70,-1,0,0,21,36,3,34.3,36.11,1018.13,0,0
2022-11-02 15:54:11,1020,70,-70,-1,0,0,21,36,3,34.3,36.11,1018.13,0,0
2022-11-02 15:54:11,1015,66,-58,0,0,0,20,38,2,34.3,36.11,1018.13,0,0
2022-11-02 15:54:11,1015,66,-58,0,0,0,20,38,2,34.3,36.11,1018.13,0,0
2022-11-02 15:54:11,1015,66,-58,0,0,0,20,38,2,34.3,36.11,1018.13,0,0
2022-11-02 15:54:11,1015,66,-58,0,0,0,20,38,2,34.3,36.11,1018.13,0,0
2022-11-02 15:54:11,1015,66,-58,0,0,0,20,38,2,34.3,36.11,1018.13,0,0
2022-11-02 15:54:11,1015,66,-58,0,0,0,20,38,2,34.3,36.11,1018.13,0,0
2022-11-02 15:54:11,1015,66,-58,0,0,0,20,38,2,34.3,36.11,1018.13,0,0
2022-11-02 15:54:11,1015,66,-58,0,0,0,20,38,2,34.3,36.11,1018.13,0,0
2022-11-02 15:54:11,1015,66,-58,0,0,0,20,38,2,34.3,36.11,1018.13,0,0
2022-11-02 15:54:11,1015,66,-58,0,0,0,20,38,2,34.3,36.11,1018.13,0,0
2022-11-02 15:54:11,1015,66,-58,0,0,0,20,38,2,34.3,36.11,1018.13,0,0
2022-11-02 15:54:11,1015,66,-58,0,0,0,20,38,2,34.3,36.11,1018.13,0,0
2022-11-02 15:54:12,1011,68,-64,0,0,0,20,40,3,34.3,36.11,1018.13,0,0
2022-11-02 15:54:12,1011,68,-64,0,0,0,20,40,3,34.3,36.11,1018.13,0,0
2022-11-02 15:54:12,1011,68,-64,0,0,0,20,40,3,34.3,36.11,1018.13,0,0
2022-11-02 15:54:12,1011,68,-64,0,0,0,20,40,3,34.3,36.11,1018.13,0,0
2022-11-02 15:54:12,1011,68,-64,0,0,0,20,40,3,34.3,36.11,1018.13,0,0
2022-11-02 15:54:12,1011,68,-64,0,0,0,20,40,3,34.3,36.11,1018.13,0,0
2022-11-02 15:54:12,1011,68,-64,0,0,0,20,40,3,34.3,36.11,1018.13,0,0
2022-11-02 15:54:12,1011,68,-64,0,0,0,20,40,3,34.3,36.11,1018.13,0,0
2022-11-02 15:54:12,1011,68,-64,0,0,0,20,40,3,34.3,36.11,1018.13,0,0
2022-11-02 15:54:12,1011,68,-64,0,0,0,20,40,3,34.3,36.11,1018.13,0,0
2022-11-02 15:54:12,1011,68,-64,0,0,0,20,40,3,34.3,36.11,1018.13,0,0
2022-11-02 15:54:12,1011,68,-64,0,0,0,20,40,3,34.3,36.11,1018.13,0,0
2022-11-02 15:54:12,1011,74,-70,0,0,0,19,38,5,34.3,36.11,1018.13,0,0
2022-11-02 15:54:12,1011,74,-70,0,0,0,19,38,5,34.3,36.11,1018.13,0,0
2022-11-02 15:54:12,1011,74,-70,0,0,0,19,38,5,34.3,36.11,1018.13,0,0
2022-11-02 15:54:12,1011,74,-70,0,0,0,19,38,5,34.3,36.11,1018.13,0,0
2022-11-02 15:54:12,1011,74,-70,0,0,0,19,38,5,34.3,36.11,1018.13,0,0
2022-11-02 15:54:12,1011,74,-70,0,0,0,19,38,5,34.3,36.11,1018.13,0,0
2022-11-02 15:54:12,1011,74,-70,0,0,0,19,38,5,34.3,36.11,1018.13,0,0
2022-11-02 15:54:12,1011,74,-70,0,0,0,19,38,5,34.3,36.11,1018.13,0,0
2022-11-02 15:54:12,1011,74,-70,0,0,0,19,38,5,34.3,36.11,1018.13,0,0
2022-11-02 15:54:12,1011,74,-70,0,0,0,19,38,5,34.3,36.11,1018.13,0,0
2022-11-02 15:54:12,1011,74,-70,0,0,0,19,38,5,34.3,36.11,1018.13,0,0
2022-11-02 15:54:12,1011,74,-70,0,0,0,19,38,5,34.3,36.11,1018.13,0,0
2022-11-02 15:54:12,1015,64,-78,0,0,0,20,38,0,34.3,36.27,1018.14,0,0
2022-11-02 15:54:12,1015,64,-78,0,0,0,20,38,0,34.3,36.27,1018.14,0,0
2022-11-02 15:54:12,1015,64,-78,0,0,0,20,38,0,34.3,36.27,1018.14,0,0
2022-11-02 15:54:12,1015,64,-78,0,0,0,20,38,0,34.3,36.27,1018.14,0,0
2022-11-02 15:54:12,1015,64,-78,0,0,0,20,38,0,34.3,36.27,1018.14,0,0
2022-11-02 15:54:12,1015,64,-78,0,0,0,20,38,0,34.3,36.27,1018.14,0,0
2022-11-02 15:54:12,1015,64,-78,0,0,0,20,38,0,34.3,36.27,1018.14,0,0
2022-11-02 15:54:12,1015,64,-78,0,0,0,20,38,0,34.3,36.27,1018.14,0,0
2022-11-02 15:54:12,1015,64,-78,0,0,0,20,38,0,34.3,36.27,1018.14,0,0
2022-11-02 15:54:12,1015,64,-78,0,0,0,20,38,0,34.3,36.27,1018.14,0,0
2022-11-02 15:54:12,1015,64,-78,0,0,0,20,38,0,34.3,36.27,1018.14,0,0
2022-11-02 15:54:12,1015,64,-78,0,0,0,20,38,0,34.3,36.27,1018.14,0,0
2022-11-02 15:54:12,1022,66,-70,0,0,0,20,39,1,34.3,36.27,1018.14,0,0
2022-11-02 15:54:12,1022,66,-70,0,0,0,20,39,1,34.3,36.27,1018.14,0,0
2022-11-02 15:54:12,1022,66,-70,0,0,0,20,39,1,34.3,36.27,1018.14,0,0
2022-11-02 15:54:12,1022,66,-70,0,0,0,20,39,1,34.3,36.27,1018.14,0,0
2022-11-02 15:54:12,1022,66,-70,0,0,0,20,39,1,34.3,36.27,1018.14,0,0
2022-11-02 15:54:12,1022,66,-70,0,0,0,20,39,1,34.3,36.27,1018.14,0,0
2022-11-02 15:54:12,1022,66,-70,0,0,0,20,39,1,34.3,36.27,1018.14,0,0
2022-11-02 15:54:12,1022,66,-70,0,0,0,20,39,1,34.3,36.27,1018.14,0,0
2022-11-02 15:54:12,1022,66,-70,0,0,0,20,39,1,34.3,36.27,1018.14,0,0
2022-11-02 15:54:12,1022,66,-70,0,0,0,20,39,1,34.3,36.27,1018.14,0,0
2022-11-02 15:54:12,1022,66,-70,0,0,0,20,39,1,34.3,36.27,1018.14,0,0
2022-11-02 15:54:12,1022,66,-70,0,0,0,20,39,1,34.3,36.27,1018.14,0,0
2022-11-02 15:54:12,1016,70,-76,0,0,0,19,39,0,34.3,36.27,1018.14,0,0
2022-11-02 15:54:12,1016,70,-76,0,0,0,19,39,0,34.3,36.27,1018.14,0,0
2022-11-02 15:54:12,1016,70,-76,0,0,0,19,39,0,34.3,36.27,1018.14,0,0
2022-11-02 15:54:12,1016,70,-76,0,0,0,19,39,0,34.3,36.27,1018.14,0,0
2022-11-02 15:54:12,1016,70,-76,0,0,0,19,39,0,34.3,36.27,1018.14,0,0
2022-11-02 15:54:12,1016,70,-76,0,0,0,19,39,0,34.3,36.27,1018.14,0,0
2022-11-02 15:54:12,1016,70,-76,0,0,0,19,39,0,34.3,36.27,1018.14,0,0
2022-11-02 15:54:12,1016,70,-76,0,0,0,19,39,0,34.3,36.27,1018.14,0,0
2022-11-02 15:54:12,1016,70,-76,0,0,0,19,39,0,34.3,36.27,1018.14,0,0
2022-11-02 15:54:12,1016,70,-76,0,0,0,19,39,0,34.3,36.27,1018.14,0,0
2022-11-02 15:54:12,1016,70,-76,0,0,0,19,39,0,34.3,36.27,1018.14,0,0
2022-11-02 15:54:12,1016,70,-76,0,0,0,19,39,0,34.3,36.27,1018.14,0,0
2022-11-02 15:54:12,1020,64,-60,0,0,0,19,38,1,34.3,36.27,1018.14,0,0
2022-11-02 15:54:12,1020,64,-60,0,0,0,19,38,1,34.3,36.27,1018.14,0,0
2022-11-02 15:54:12,1020,64,-60,0,0,0,19,38,1,34.3,36.27,1018.14,0,0
2022-11-02 15:54:12,1020,64,-60,0,0,0,19,38,1,34.3,36.27,1018.14,0,0
2022-11-02 15:54:12,1020,64,-60,0,0,0,19,38,1,34.3,36.27,1018.14,0,0
2022-11-02 15:54:12,1020,64,-60,0,0,0,19,38,1,34.3,36.27,1018.14,0,0
2022-11-02 15:54:12,1020,64,-60,0,0,0,19,38,1,34.3,36.27,1018.14,0,0
2022-11-02 15:54:12,1020,64,-60,0,0,0,19,38,1,34.3,36.27,1018.14,0,0
2022-11-02 15:54:12,1020,64,-60,0,0,0,19,38,1,34.3,36.27,1018.14,0,0
2022-11-02 15:54:12,1020,64,-60,0,0,0,19,38,1,34.3,36.27,1018.14,0,0
2022-11-02 15:54:12,1020,64,-60,0,0,0,19,38,1,34.3,36.27,1018.14,0,0
2022-11-02 15:54:12,1020,64,-60,0,0,0,19,38,1,34.3,36.27,1018.14,0,0
2022-11-02 15:54:12,1013,64,-66,-1,1,0,21,36,-1,34.3,36.27,1018.14,0,0
2022-11-02 15:54:12,1013,64,-66,-1,1,0,21,36,-1,34.3,36.27,1018.14,0,0
2022-11-02 15:54:12,1013,64,-66,-1,1,0,21,36,-1,34.3,36.27,1018.14,0,0
2022-11-02 15:54:12,1013,64,-66,-1,1,0,21,36,-1,34.3,36.27,1018.14,0,0
2022-11-02 15:54:12,1013,64,-66,-1,1,0,21,36,-1,34.3,36.27,1018.14,0,0
2022-11-02 15:54:12,1013,64,-66,-1,1,0,21,36,-1,34.3,36.27,1018.14,0,0
2022-11-02 15:54:12,1013,64,-66,-1,1,0,21,36,-1,34.3,36.27,1018.14,0,0
2022-11-02 15:54:12,1013,64,-66,-1,1,0,21,36,-1,34.3,36.27,1018.14,0,0
2022-11-02 15:54:12,1013,64,-66,-1,1,0,21,36,-1,34.3,36.27,1018.14,0,0
2022-11-02 15:54:12,1013,64,-66,-1,1,0,21,36,-1,34.3,36.27,1018.14,0,0
2022-11-02 15:54:12,1013,64,-66,-1,1,0,21,36,-1,34.3,36.27,1018.14,0,0
2022-11-02 15:54:12,1013,64,-66,-1,1,0,21,36,-1,34.3,36.27,1018.14,0,0
2022-11-02 15:54:12,1022,62,-68,0,0,0,21,41,-4,34.3,36.27,1018.14,0,0
2022-11-02 15:54:12,1022,62,-68,0,0,0,21,41,-4,34.3,36.27,1018.14,0,0
2022-11-02 15:54:12,1022,62,-68,0,0,0,21,41,-4,34.3,36.27,1018.14,0,0
2022-11-02 15:54:12,1022,62,-68,0,0,0,21,41,-4,34.3,36.27,1018.14,0,0
2022-11-02 15:54:12,1022,62,-68,0,0,0,21,41,-4,34.3,36.27,1018.14,0,0
2022-11-02 15:54:12,1022,62,-68,0,0,0,21,41,-4,34.3,36.27,1018.14,0,0
2022-11-02 15:54:12,1022,62,-68,0,0,0,21,41,-4,34.3,36.27,1018.14,0,0
2022-11-02 15:54:12,1022,62,-68,0,0,0,21,41,-4,34.3,36.27,1018.14,0,0
2022-11-02 15:54:12,1022,62,-68,0,0,0,21,41,-4,34.3,36.27,1018.14,0,0
2022-11-02 15:54:12,1022,62,-68,0,0,0,21,41,-4,34.3,36.27,1018.14,0,0
2022-11-02 15:54:12,1022,62,-68,0,0,0,21,41,-4,34.3,36.27,1018.14,0,0
2022-11-02 15:54:12,1022,62,-68,0,0,0,21,41,-4,34.3,36.27,1018.14,0,0
2022-11-02 15:54:12,1024,62,-44,1,1,0,22,36,-1,34.3,36.27,1018.14,0,0
2022-11-02 15:54:12,1024,62,-44,1,1,0,22,36,-1,34.3,36.27,1018.14,0,0
2022-11-02 15:54:12,1024,62,-44,1,1,0,22,36,-1,34.3,36.27,1018.14,0,0
2022-11-02 15:54:12,1024,62,-44,1,1,0,22,36,-1,34.3,36.27,1018.14,0,0
2022-11-02 15:54:12,1024,62,-44,1,1,0,22,36,-1,34.3,36.27,1018.14,0,0
2022-11-02 15:54:12,1024,62,-44,1,1,0,22,36,-1,34.3,36.27,1018.14,0,0
2022-11-02 15:54:12,1024,62,-44,1,1,0,22,36,-1,34.3,36.27,1018.14,0,0
2022-11-02 15:54:12,1024,62,-44,1,1,0,22,36,-1,34.3,36.27,1018.14,0,0
2022-11-02 15:54:12,1024,62,-44,1,1,0,22,36,-1,34.3,36.27,1018.14,0,0
2022-11-02 15:54:12,1024,62,-44,1,1,0,22,36,-1,34.3,36.27,1018.14,0,0
2022-11-02 15:54:12,1024,62,-44,1,1,0,22,36,-1,34.3,36.27,1018.14,0,0
2022-11-02 15:54:12,1024,62,-44,1,1,0,22,36,-1,34.3,36.27,1018.14,0,0
2022-11-02 15:54:12,1015,68,-54,0,2,0,19,39,1,34.3,36.27,1018.14,0,0
2022-11-02 15:54:12,1015,68,-54,0,2,0,19,39,1,34.3,36.27,1018.14,0,0
2022-11-02 15:54:12,1015,68,-54,0,2,0,19,39,1,34.3,36.27,1018.14,0,0
2022-11-02 15:54:12,1015,68,-54,0,2,0,19,39,1,34.3,36.27,1018.14,0,0
2022-11-02 15:54:12,1015,68,-54,0,2,0,19,39,1,34.3,36.27,1018.14,0,0
2022-11-02 15:54:12,1015,68,-54,0,2,0,19,39,1,34.3,36.27,1018.14,0,0
2022-11-02 15:54:12,1015,68,-54,0,2,0,19,39,1,34.3,36.27,1018.14,0,0
2022-11-02 15:54:12,1015,68,-54,0,2,0,19,39,1,34.3,36.27,1018.14,0,0
2022-11-02 15:54:12,1015,68,-54,0,2,0,19,39,1,34.3,36.27,1018.14,0,0
2022-11-02 15:54:12,1015,68,-54,0,2,0,19,39,1,34.3,36.27,1018.14,0,0
2022-11-02 15:54:12,1015,68,-54,0,2,0,19,39,1,34.3,36.27,1018.14,0,0
2022-11-02 15:54:12,1015,68,-54,0,2,0,19,39,1,34.3,36.27,1018.14,0,0
2022-11-02 15:54:13,1018,64,-56,0,2,0,20,39,2,34.3,36.27,1018.14,0,0
2022-11-02 15:54:13,1018,64,-56,0,2,0,20,39,2,34.3,36.27,1018.14,0,0
2022-11-02 15:54:13,1018,64,-56,0,2,0,20,39,2,34.3,36.27,1018.14,0,0
2022-11-02 15:54:13,1018,64,-56,0,2,0,20,39,2,34.3,36.27,1018.14,0,0
2022-11-02 15:54:13,1018,64,-56,0,2,0,20,39,2,34.3,36.27,1018.14,0,0
2022-11-02 15:54:13,1018,64,-56,0,2,0,20,39,2,34.3,36.27,1018.14,0,0
2022-11-02 15:54:13,1018,64,-56,0,2,0,20,39,2,34.3,36.27,1018.14,0,0
2022-11-02 15:54:13,1018,64,-56,0,2,0,20,39,2,34.3,36.27,1018.14,0,0
2022-11-02 15:54:13,1018,64,-56,0,2,0,20,39,2,34.3,36.27,1018.14,0,0
2022-11-02 15:54:13,1018,64,-56,0,2,0,20,39,2,34.3,36.27,1018.14,0,0
2022-11-02 15:54:13,1018,64,-56,0,2,0,20,39,2,34.3,36.27,1018.14,0,0
2022-11-02 15:54:13,1018,64,-56,0,2,0,20,39,2,34.3,36.27,1018.14,0,0
2022-11-02 15:54:13,1013,70,-52,0,2,0,21,38,3,34.3,36.27,1018.14,0,0
2022-11-02 15:54:13,1013,70,-52,0,2,0,21,38,3,34.3,36.27,1018.14,0,0
2022-11-02 15:54:13,1013,70,-52,0,2,0,21,38,3,34.3,36.27,1018.14,0,0
2022-11-02 15:54:13,1013,70,-52,0,2,0,21,38,3,34.3,36.27,1018.14,0,0
2022-11-02 15:54:13,1013,70,-52,0,2,0,21,38,3,34.3,36.27,1018.14,0,0
2022-11-02 15:54:13,1013,70,-52,0,2,0,21,38,3,34.3,36.27,1018.14,0,0
2022-11-02 15:54:13,1013,70,-52,0,2,0,21,38,3,34.3,36.27,1018.14,0,0
2022-11-02 15:54:13,1013,70,-52,0,2,0,21,38,3,34.3,36.27,1018.14,0,0
2022-11-02 15:54:13,1013,70,-52,0,2,0,21,38,3,34.3,36.27,1018.14,0,0
2022-11-02 15:54:13,1013,70,-52,0,2,0,21,38,3,34.3,36.27,1018.14,0,0
2022-11-02 15:54:13,1013,70,-52,0,2,0,21,38,3,34.3,36.27,1018.14,0,0
2022-11-02 15:54:13,1013,70,-52,0,2,0,21,38,3,34.3,36.27,1018.14,0,0
2022-11-02 15:54:13,1030,64,-42,0,2,1,19,39,-4,34.3,35.91,1018.19,0,0
2022-11-02 15:54:13,1030,64,-42,0,2,1,19,39,-4,34.3,35.91,1018.19,0,0
2022-11-02 15:54:13,1030,64,-42,0,2,1,19,39,-4,34.3,35.91,1018.19,0,0
2022-11-02 15:54:13,1030,64,-42,0,2,1,19,39,-4,34.3,35.91,1018.19,0,0
2022-11-02 15:54:13,1030,64,-42,0,2,1,19,39,-4,34.3,35.91,1018.19,0,0
2022-11-02 15:54:13,1030,64,-42,0,2,1,19,39,-4,34.3,35.91,1018.19,0,0
2022-11-02 15:54:13,1030,64,-42,0,2,1,19,39,-4,34.3,35.91,1018.19,0,0
2022-11-02 15:54:13,1030,64,-42,0,2,1,19,39,-4,34.3,35.91,1018.19,0,0
2022-11-02 15:54:13,1030,64,-42,0,2,1,19,39,-4,34.3,35.91,1018.19,0,0
2022-11-02 15:54:13,1030,64,-42,0,2,1,19,39,-4,34.3,35.91,1018.19,0,0
2022-11-02 15:54:13,1030,64,-42,0,2,1,19,39,-4,34.3,35.91,1018.19,0,0
2022-11-02 15:54:13,1030,64,-42,0,2,1,19,39,-4,34.3,35.91,1018.19,0,0
2022-11-02 15:54:13,1020,56,-37,0,-1,0,21,37,1,34.3,35.91,1018.19,0,0
2022-11-02 15:54:13,1020,56,-37,0,-1,0,21,37,1,34.3,35.91,1018.19,0,0
2022-11-02 15:54:13,1020,56,-37,0,-1,0,21,37,1,34.3,35.91,1018.19,0,0
2022-11-02 15:54:13,1020,56,-37,0,-1,0,21,37,1,34.3,35.91,1018.19,0,0
2022-11-02 15:54:13,1020,56,-37,0,-1,0,21,37,1,34.3,35.91,1018.19,0,0
2022-11-02 15:54:13,1020,56,-37,0,-1,0,21,37,1,34.3,35.91,1018.19,0,0
2022-11-02 15:54:13,1020,56,-37,0,-1,0,21,37,1,34.3,35.91,1018.19,0,0
2022-11-02 15:54:13,1020,56,-37,0,-1,0,21,37,1,34.3,35.91,1018.19,0,0
2022-11-02 15:54:13,1020,56,-37,0,-1,0,21,37,1,34.3,35.91,1018.19,0,0
2022-11-02 15:54:13,1020,56,-37,0,-1,0,21,37,1,34.3,35.91,1018.19,0,0
2022-11-02 15:54:13,1020,56,-37,0,-1,0,21,37,1,34.3,35.91,1018.19,0,0
2022-11-02 15:54:13,1020,56,-37,0,-1,0,21,37,1,34.3,35.91,1018.19,0,0
2022-11-02 15:54:13,1015,66,-54,0,0,0,20,39,1,34.3,35.91,1018.19,0,0
2022-11-02 15:54:13,1015,66,-54,0,0,0,20,39,1,34.3,35.91,1018.19,0,0
2022-11-02 15:54:13,1015,66,-54,0,0,0,20,39,1,34.3,35.91,1018.19,0,0
2022-11-02 15:54:13,1015,66,-54,0,0,0,20,39,1,34.3,35.91,1018.19,0,0
2022-11-02 15:54:13,1015,66,-54,0,0,0,20,39,1,34.3,35.91,1018.19,0,0
2022-11-02 15:54:13,1015,66,-54,0,0,0,20,39,1,34.3,35.91,1018.19,0,0
2022-11-02 15:54:13,1015,66,-54,0,0,0,20,39,1,34.3,35.91,1018.19,0,0
2022-11-02 15:54:13,1015,66,-54,0,0,0,20,39,1,34.3,35.91,1018.19,0,0
2022-11-02 15:54:13,1015,66,-54,0,0,0,20,39,1,34.3,35.91,1018.19,0,0
2022-11-02 15:54:13,1015,66,-54,0,0,0,20,39,1,34.3,35.91,1018.19,0,0
2022-11-02 15:54:13,1015,66,-54,0,0,0,20,39,1,34.3,35.91,1018.19,0,0
2022-11-02 15:54:13,1015,66,-54,0,0,0,20,39,1,34.3,35.91,1018.19,0,0
2022-11-02 15:54:13,1016,62,-60,0,0,0,21,36,0,34.3,35.91,1018.19,0,0
2022-11-02 15:54:13,1016,62,-60,0,0,0,21,36,0,34.3,35.91,1018.19,0,0
2022-11-02 15:54:13,1016,62,-60,0,0,0,21,36,0,34.3,35.91,1018.19,0,0
2022-11-02 15:54:13,1016,62,-60,0,0,0,21,36,0,34.3,35.91,1018.19,0,0
2022-11-02 15:54:13,1016,62,-60,0,0,0,21,36,0,34.3,35.91,1018.19,0,0
2022-11-02 15:54:13,1016,62,-60,0,0,0,21,36,0,34.3,35.91,1018.19,0,0
2022-11-02 15:54:13,1016,62,-60,0,0,0,21,36,0,34.3,35.91,1018.19,0,0
2022-11-02 15:54:13,1016,62,-60,0,0,0,21,36,0,34.3,35.91,1018.19,0,0
2022-11-02 15:54:13,1016,62,-60,0,0,0,21,36,0,34.3,35.91,1018.19,0,0
2022-11-02 15:54:13,1016,62,-60,0,0,0,21,36,0,34.3,35.91,1018.19,0,0
2022-11-02 15:54:13,1016,62,-60,0,0,0,21,36,0,34.3,35.91,1018.19,0,0
2022-11-02 15:54:13,1016,62,-60,0,0,0,21,36,0,34.3,35.91,1018.19,0,0
2022-11-02 15:54:13,1018,60,-46,0,0,0,20,37,1,34.3,35.91,1018.19,0,0
2022-11-02 15:54:13,1018,60,-46,0,0,0,20,37,1,34.3,35.91,1018.19,0,0
2022-11-02 15:54:13,1018,60,-46,0,0,0,20,37,1,34.3,35.91,1018.19,0,0
2022-11-02 15:54:13,1018,60,-46,0,0,0,20,37,1,34.3,35.91,1018.19,0,0
2022-11-02 15:54:13,1018,60,-46,0,0,0,20,37,1,34.3,35.91,1018.19,0,0
2022-11-02 15:54:13,1018,60,-46,0,0,0,20,37,1,34.3,35.91,1018.19,0,0
2022-11-02 15:54:13,1018,60,-46,0,0,0,20,37,1,34.3,35.91,1018.19,0,0
2022-11-02 15:54:13,1018,60,-46,0,0,0,20,37,1,34.3,35.91,1018.19,0,0
2022-11-02 15:54:13,1018,60,-46,0,0,0,20,37,1,34.3,35.91,1018.19,0,0
2022-11-02 15:54:13,1018,60,-46,0,0,0,20,37,1,34.3,35.91,1018.19,0,0
2022-11-02 15:54:13,1018,60,-46,0,0,0,20,37,1,34.3,35.91,1018.19,0,0
2022-11-02 15:54:13,1018,60,-46,0,0,0,20,37,1,34.3,35.91,1018.19,0,0
2022-11-02 15:54:13,1022,64,-56,1,1,0,23,37,0,34.3,35.91,1018.19,0,0
2022-11-02 15:54:13,1022,64,-56,1,1,0,23,37,0,34.3,35.91,1018.19,0,0
2022-11-02 15:54:13,1022,64,-56,1,1,0,23,37,0,34.3,35.91,1018.19,0,0
2022-11-02 15:54:13,1022,64,-56,1,1,0,23,37,0,34.3,35.91,1018.19,0,0
2022-11-02 15:54:13,1022,64,-56,1,1,0,23,37,0,34.3,35.91,1018.19,0,0
2022-11-02 15:54:13,1022,64,-56,1,1,0,23,37,0,34.3,35.91,1018.19,0,0
2022-11-02 15:54:13,1022,64,-56,1,1,0,23,37,0,34.3,35.91,1018.19,0,0
2022-11-02 15:54:13,1022,64,-56,1,1,0,23,37,0,34.3,35.91,1018.19,0,0
2022-11-02 15:54:13,1022,64,-56,1,1,0,23,37,0,34.3,35.91,1018.19,0,0
2022-11-02 15:54:13,1022,64,-56,1,1,0,23,37,0,34.3,35.91,1018.19,0,0
2022-11-02 15:54:13,1022,64,-56,1,1,0,23,37,0,34.3,35.91,1018.19,0,0
2022-11-02 15:54:13,1022,64,-56,1,1,0,23,37,0,34.3,35.91,1018.19,0,0
2022-11-02 15:54:13,1024,62,-46,1,0,0,21,39,-1,34.3,35.91,1018.19,0,0
2022-11-02 15:54:13,1024,62,-46,1,0,0,21,39,-1,34.3,35.91,1018.19,0,0
2022-11-02 15:54:13,1024,62,-46,1,0,0,21,39,-1,34.3,35.91,1018.19,0,0
2022-11-02 15:54:13,1024,62,-46,1,0,0,21,39,-1,34.3,35.91,1018.19,0,0
2022-11-02 15:54:13,1024,62,-46,1,0,0,21,39,-1,34.3,35.91,1018.19,0,0
2022-11-02 15:54:13,1024,62,-46,1,0,0,21,39,-1,34.3,35.91,1018.19,0,0
2022-11-02 15:54:13,1024,62,-46,1,0,0,21,39,-1,34.3,35.91,1018.19,0,0
2022-11-02 15:54:13,1024,62,-46,1,0,0,21,39,-1,34.3,35.91,1018.19,0,0
2022-11-02 15:54:13,1024,62,-46,1,0,0,21,39,-1,34.3,35.91,1018.19,0,0
2022-11-02 15:54:13,1024,62,-46,1,0,0,21,39,-1,34.3,35.91,1018.19,0,0
2022-11-02 15:54:13,1024,62,-46,1,0,0,21,39,-1,34.3,35.91,1018.19,0,0
2022-11-02 15:54:13,1024,62,-46,1,0,0,21,39,-1,34.3,35.91,1018.19,0,0
2022-11-02 15:54:13,1018,62,-52,1,0,0,21,38,4,34.3,35.91,1018.19,0,0
2022-11-02 15:54:13,1018,62,-52,1,0,0,21,38,4,34.3,35.91,1018.19,0,0
2022-11-02 15:54:13,1018,62,-52,1,0,0,21,38,4,34.3,35.91,1018.19,0,0
2022-11-02 15:54:13,1018,62,-52,1,0,0,21,38,4,34.3,35.91,1018.19,0,0
2022-11-02 15:54:13,1018,62,-52,1,0,0,21,38,4,34.3,35.91,1018.19,0,0
2022-11-02 15:54:13,1018,62,-52,1,0,0,21,38,4,34.3,35.91,1018.19,0,0
2022-11-02 15:54:13,1018,62,-52,1,0,0,21,38,4,34.3,35.91,1018.19,0,0
2022-11-02 15:54:13,1018,62,-52,1,0,0,21,38,4,34.3,35.91,1018.19,0,0
2022-11-02 15:54:13,1018,62,-52,1,0,0,21,38,4,34.3,35.91,1018.19,0,0
2022-11-02 15:54:13,1018,62,-52,1,0,0,21,38,4,34.3,35.91,1018.19,0,0
2022-11-02 15:54:13,1018,62,-52,1,0,0,21,38,4,34.3,35.91,1018.19,0,0
2022-11-02 15:54:13,1018,62,-52,1,0,0,21,38,4,34.3,35.91,1018.19,0,0
2022-11-02 15:54:14,1011,70,-56,0,0,1,21,36,2,34.3,35.91,1018.19,0,0
2022-11-02 15:54:14,1011,70,-56,0,0,1,21,36,2,34.3,35.91,1018.19,0,0
2022-11-02 15:54:14,1011,70,-56,0,0,1,21,36,2,34.3,35.91,1018.19,0,0
2022-11-02 15:54:14,1011,70,-56,0,0,1,21,36,2,34.3,35.91,1018.19,0,0
2022-11-02 15:54:14,1011,70,-56,0,0,1,21,36,2,34.3,35.91,1018.19,0,0
2022-11-02 15:54:14,1011,70,-56,0,0,1,21,36,2,34.3,35.91,1018.19,0,0
2022-11-02 15:54:14,1011,70,-56,0,0,1,21,36,2,34.3,35.91,1018.19,0,0
2022-11-02 15:54:14,1011,70,-56,0,0,1,21,36,2,34.3,35.91,1018.19,0,0
2022-11-02 15:54:14,1011,70,-56,0,0,1,21,36,2,34.3,35.91,1018.19,0,0
2022-11-02 15:54:14,1011,70,-56,0,0,1,21,36,2,34.3,35.91,1018.19,0,0
2022-11-02 15:54:14,1011,70,-56,0,0,1,21,36,2,34.3,35.91,1018.19,0,0
2022-11-02 15:54:14,1011,70,-56,0,0,1,21,36,2,34.3,35.91,1018.19,0,0
2022-11-02 15:54:14,1024,58,-52,0,0,0,22,37,-1,34.3,35.91,1018.19,0,0
2022-11-02 15:54:14,1024,58,-52,0,0,0,22,37,-1,34.3,35.91,1018.19,0,0
2022-11-02 15:54:14,1024,58,-52,0,0,0,22,37,-1,34.3,35.91,1018.19,0,0
2022-11-02 15:54:14,1024,58,-52,0,0,0,22,37,-1,34.3,35.91,1018.19,0,0
2022-11-02 15:54:14,1024,58,-52,0,0,0,22,37,-1,34.3,35.91,1018.19,0,0
2022-11-02 15:54:14,1024,58,-52,0,0,0,22,37,-1,34.3,35.91,1018.19,0,0
2022-11-02 15:54:14,1024,58,-52,0,0,0,22,37,-1,34.3,35.91,1018.19,0,0
2022-11-02 15:54:14,1024,58,-52,0,0,0,22,37,-1,34.3,35.91,1018.19,0,0
2022-11-02 15:54:14,1024,58,-52,0,0,0,22,37,-1,34.3,35.91,1018.19,0,0
2022-11-02 15:54:14,1024,58,-52,0,0,0,22,37,-1,34.3,35.91,1018.19,0,0
2022-11-02 15:54:14,1024,58,-52,0,0,0,22,37,-1,34.3,35.91,1018.19,0,0
2022-11-02 15:54:14,1024,58,-52,0,0,0,22,37,-1,34.3,35.91,1018.19,0,0
2022-11-02 15:54:14,1018,60,-54,1,1,0,23,37,3,34.3,35.91,1018.16,0,0
2022-11-02 15:54:14,1018,60,-54,1,1,0,23,37,3,34.3,35.91,1018.16,0,0
2022-11-02 15:54:14,1018,60,-54,1,1,0,23,37,3,34.3,35.91,1018.16,0,0
2022-11-02 15:54:14,1018,60,-54,1,1,0,23,37,3,34.3,35.91,1018.16,0,0
2022-11-02 15:54:14,1018,60,-54,1,1,0,23,37,3,34.3,35.91,1018.16,0,0
2022-11-02 15:54:14,1018,60,-54,1,1,0,23,37,3,34.3,35.91,1018.16,0,0
2022-11-02 15:54:14,1018,60,-54,1,1,0,23,37,3,34.3,35.91,1018.16,0,0
2022-11-02 15:54:14,1018,60,-54,1,1,0,23,37,3,34.3,35.91,1018.16,0,0
2022-11-02 15:54:14,1018,60,-54,1,1,0,23,37,3,34.3,35.91,1018.16,0,0
2022-11-02 15:54:14,1018,60,-54,1,1,0,23,37,3,34.3,35.91,1018.16,0,0
2022-11-02 15:54:14,1018,60,-54,1,1,0,23,37,3,34.3,35.91,1018.16,0,0
2022-11-02 15:54:14,1018,60,-54,1,1,0,23,37,3,34.3,35.91,1018.16,0,0
2022-11-02 15:54:14,1011,60,-39,0,0,0,20,37,0,34.3,35.91,1018.16,0,0
2022-11-02 15:54:14,1011,60,-39,0,0,0,20,37,0,34.3,35.91,1018.16,0,0
2022-11-02 15:54:14,1011,60,-39,0,0,0,20,37,0,34.3,35.91,1018.16,0,0
2022-11-02 15:54:14,1011,60,-39,0,0,0,20,37,0,34.3,35.91,1018.16,0,0
2022-11-02 15:54:14,1011,60,-39,0,0,0,20,37,0,34.3,35.91,1018.16,0,0
2022-11-02 15:54:14,1011,60,-39,0,0,0,20,37,0,34.3,35.91,1018.16,0,0
2022-11-02 15:54:14,1011,60,-39,0,0,0,20,37,0,34.3,35.91,1018.16,0,0
2022-11-02 15:54:14,1011,60,-39,0,0,0,20,37,0,34.3,35.91,1018.16,0,0
2022-11-02 15:54:14,1011,60,-39,0,0,0,20,37,0,34.3,35.91,1018.16,0,0
2022-11-02 15:54:14,1011,60,-39,0,0,0,20,37,0,34.3,35.91,1018.16,0,0
2022-11-02 15:54:14,1011,60,-39,0,0,0,20,37,0,34.3,35.91,1018.16,0,0
2022-11-02 15:54:14,1011,60,-39,0,0,0,20,37,0,34.3,35.91,1018.16,0,0
2022-11-02 15:54:14,1024,66,-56,-1,1,0,21,38,1,34.3,35.91,1018.16,0,0
2022-11-02 15:54:14,1024,66,-56,-1,1,0,21,38,1,34.3,35.91,1018.16,0,0
2022-11-02 15:54:14,1024,66,-56,-1,1,0,21,38,1,34.3,35.91,1018.16,0,0
2022-11-02 15:54:14,1024,66,-56,-1,1,0,21,38,1,34.3,35.91,1018.16,0,0
2022-11-02 15:54:14,1024,66,-56,-1,1,0,21,38,1,34.3,35.91,1018.16,0,0
2022-11-02 15:54:14,1024,66,-56,-1,1,0,21,38,1,34.3,35.91,1018.16,0,0
2022-11-02 15:54:14,1024,66,-56,-1,1,0,21,38,1,34.3,35.91,1018.16,0,0
2022-11-02 15:54:14,1024,66,-56,-1,1,0,21,38,1,34.3,35.91,1018.16,0,0
2022-11-02 15:54:14,1024,66,-56,-1,1,0,21,38,1,34.3,35.91,1018.16,0,0
2022-11-02 15:54:14,1024,66,-56,-1,1,0,21,38,1,34.3,35.91,1018.16,0,0
2022-11-02 15:54:14,1024,66,-56,-1,1,0,21,38,1,34.3,35.91,1018.16,0,0
2022-11-02 15:54:14,1024,66,-56,-1,1,0,21,38,1,34.3,35.91,1018.16,0,0
2022-11-02 15:54:14,1015,54,-39,-1,0,0,21,37,0,34.3,35.91,1018.16,0,0
2022-11-02 15:54:14,1015,54,-39,-1,0,0,21,37,0,34.3,35.91,1018.16,0,0
2022-11-02 15:54:14,1015,54,-39,-1,0,0,21,37,0,34.3,35.91,1018.16,0,0
2022-11-02 15:54:14,1015,54,-39,-1,0,0,21,37,0,34.3,35.91,1018.16,0,0
2022-11-02 15:54:14,1015,54,-39,-1,0,0,21,37,0,34.3,35.91,1018.16,0,0
2022-11-02 15:54:14,1015,54,-39,-1,0,0,21,37,0,34.3,35.91,1018.16,0,0
2022-11-02 15:54:14,1015,54,-39,-1,0,0,21,37,0,34.3,35.91,1018.16,0,0
2022-11-02 15:54:14,1015,54,-39,-1,0,0,21,37,0,34.3,35.91,1018.16,0,0
2022-11-02 15:54:14,1015,54,-39,-1,0,0,21,37,0,34.3,35.91,1018.16,0,0
2022-11-02 15:54:14,1015,54,-39,-1,0,0,21,37,0,34.3,35.91,1018.16,0,0
2022-11-02 15:54:14,1015,54,-39,-1,0,0,21,37,0,34.3,35.91,1018.16,0,0
2022-11-02 15:54:14,1015,54,-39,-1,0,0,21,37,0,34.3,35.91,1018.16,0,0
2022-11-02 15:54:14,1030,52,-48,0,0,0,21,36,0,34.3,35.91,1018.16,0,0
2022-11-02 15:54:14,1030,52,-48,0,0,0,21,36,0,34.3,35.91,1018.16,0,0
2022-11-02 15:54:14,1030,52,-48,0,0,0,21,36,0,34.3,35.91,1018.16,0,0
2022-11-02 15:54:14,1030,52,-48,0,0,0,21,36,0,34.3,35.91,1018.16,0,0
2022-11-02 15:54:14,1030,52,-48,0,0,0,21,36,0,34.3,35.91,1018.16,0,0
2022-11-02 15:54:14,1030,52,-48,0,0,0,21,36,0,34.3,35.91,1018.16,0,0
2022-11-02 15:54:14,1030,52,-48,0,0,0,21,36,0,34.3,35.91,1018.16,0,0
2022-11-02 15:54:14,1030,52,-48,0,0,0,21,36,0,34.3,35.91,1018.16,0,0
2022-11-02 15:54:14,1030,52,-48,0,0,0,21,36,0,34.3,35.91,1018.16,0,0
2022-11-02 15:54:14,1030,52,-48,0,0,0,21,36,0,34.3,35.91,1018.16,0,0
2022-11-02 15:54:14,1030,52,-48,0,0,0,21,36,0,34.3,35.91,1018.16,0,0
2022-11-02 15:54:14,1030,52,-48,0,0,0,21,36,0,34.3,35.91,1018.16,0,0
2022-11-02 15:54:14,1024,56,-42,-1,-1,1,19,40,6,34.3,35.91,1018.16,0,0
2022-11-02 15:54:14,1024,56,-42,-1,-1,1,19,40,6,34.3,35.91,1018.16,0,0
2022-11-02 15:54:14,1024,56,-42,-1,-1,1,19,40,6,34.3,35.91,1018.16,0,0
2022-11-02 15:54:14,1024,56,-42,-1,-1,1,19,40,6,34.3,35.91,1018.16,0,0
2022-11-02 15:54:14,1024,56,-42,-1,-1,1,19,40,6,34.3,35.91,1018.16,0,0
2022-11-02 15:54:14,1024,56,-42,-1,-1,1,19,40,6,34.3,35.91,1018.16,0,0
2022-11-02 15:54:14,1024,56,-42,-1,-1,1,19,40,6,34.3,35.91,1018.16,0,0
2022-11-02 15:54:14,1024,56,-42,-1,-1,1,19,40,6,34.3,35.91,1018.16,0,0
2022-11-02 15:54:14,1024,56,-42,-1,-1,1,19,40,6,34.3,35.91,1018.16,0,0
2022-11-02 15:54:14,1024,56,-42,-1,-1,1,19,40,6,34.3,35.91,1018.16,0,0
2022-11-02 15:54:14,1024,56,-42,-1,-1,1,19,40,6,34.3,35.91,1018.16,0,0
2022-11-02 15:54:14,1024,56,-42,-1,-1,1,19,40,6,34.3,35.91,1018.16,0,0
2022-11-02 15:54:14,1016,60,-46,-3,1,1,20,38,2,34.3,35.91,1018.16,0,0
2022-11-02 15:54:14,1016,60,-46,-3,1,1,20,38,2,34.3,35.91,1018.16,0,0
2022-11-02 15:54:14,1016,60,-46,-3,1,1,20,38,2,34.3,35.91,1018.16,0,0
2022-11-02 15:54:14,1016,60,-46,-3,1,1,20,38,2,34.3,35.91,1018.16,0,0
2022-11-02 15:54:14,1016,60,-46,-3,1,1,20,38,2,34.3,35.91,1018.16,0,0
2022-11-02 15:54:14,1016,60,-46,-3,1,1,20,38,2,34.3,35.91,1018.16,0,0
2022-11-02 15:54:14,1016,60,-46,-3,1,1,20,38,2,34.3,35.91,1018.16,0,0
2022-11-02 15:54:14,1016,60,-46,-3,1,1,20,38,2,34.3,35.91,1018.16,0,0
2022-11-02 15:54:14,1016,60,-46,-3,1,1,20,38,2,34.3,35.91,1018.16,0,0
2022-11-02 15:54:14,1016,60,-46,-3,1,1,20,38,2,34.3,35.91,1018.16,0,0
2022-11-02 15:54:14,1016,60,-46,-3,1,1,20,38,2,34.3,35.91,1018.16,0,0
2022-11-02 15:54:14,1016,60,-46,-3,1,1,20,38,2,34.3,35.91,1018.16,0,0
2022-11-02 15:54:14,1011,56,-33,0,0,1,22,38,-1,34.3,35.91,1018.16,0,0
2022-11-02 15:54:14,1011,56,-33,0,0,1,22,38,-1,34.3,35.91,1018.16,0,0
2022-11-02 15:54:14,1011,56,-33,0,0,1,22,38,-1,34.3,35.91,1018.16,0,0
2022-11-02 15:54:14,1011,56,-33,0,0,1,22,38,-1,34.3,35.91,1018.16,0,0
2022-11-02 15:54:14,1011,56,-33,0,0,1,22,38,-1,34.3,35.91,1018.16,0,0
2022-11-02 15:54:14,1011,56,-33,0,0,1,22,38,-1,34.3,35.91,1018.16,0,0
2022-11-02 15:54:14,1011,56,-33,0,0,1,22,38,-1,34.3,35.91,1018.16,0,0
2022-11-02 15:54:14,1011,56,-33,0,0,1,22,38,-1,34.3,35.91,1018.16,0,0
2022-11-02 15:54:14,1011,56,-33,0,0,1,22,38,-1,34.3,35.91,1018.16,0,0
2022-11-02 15:54:14,1011,56,-33,0,0,1,22,38,-1,34.3,35.91,1018.16,0,0
2022-11-02 15:54:14,1011,56,-33,0,0,1,22,38,-1,34.3,35.91,1018.16,0,0
2022-11-02 15:54:14,1011,56,-33,0,0,1,22,38,-1,34.3,35.91,1018.16,0,0
2022-11-02 15:54:15,1018,48,-44,1,0,0,22,38,3,34.3,35.91,1018.16,0,0
2022-11-02 15:54:15,1018,48,-44,1,0,0,22,38,3,34.3,35.91,1018.16,0,0
2022-11-02 15:54:15,1018,48,-44,1,0,0,22,38,3,34.3,35.91,1018.16,0,0
2022-11-02 15:54:15,1018,48,-44,1,0,0,22,38,3,34.3,35.91,1018.16,0,0
2022-11-02 15:54:15,1018,48,-44,1,0,0,22,38,3,34.3,35.91,1018.16,0,0
2022-11-02 15:54:15,1018,48,-44,1,0,0,22,38,3,34.3,35.91,1018.16,0,0
2022-11-02 15:54:15,1018,48,-44,1,0,0,22,38,3,34.3,35.91,1018.16,0,0
2022-11-02 15:54:15,1018,48,-44,1,0,0,22,38,3,34.3,35.91,1018.16,0,0
2022-11-02 15:54:15,1018,48,-44,1,0,0,22,38,3,34.3,35.91,1018.16,0,0
2022-11-02 15:54:15,1018,48,-44,1,0,0,22,38,3,34.3,35.91,1018.16,0,0
2022-11-02 15:54:15,1018,48,-44,1,0,0,22,38,3,34.3,35.91,1018.16,0,0
2022-11-02 15:54:15,1018,48,-44,1,0,0,22,38,3,34.3,35.91,1018.16,0,0
2022-11-02 15:54:15,1013,48,-64,0,-1,0,21,36,3,34.3,35.91,1018.16,0,0
2022-11-02 15:54:15,1013,48,-64,0,-1,0,21,36,3,34.3,35.91,1018.16,0,0
2022-11-02 15:54:15,1013,48,-64,0,-1,0,21,36,3,34.3,35.91,1018.16,0,0
2022-11-02 15:54:15,1013,48,-64,0,-1,0,21,36,3,34.3,35.91,1018.16,0,0
2022-11-02 15:54:15,1013,48,-64,0,-1,0,21,36,3,34.3,35.91,1018.16,0,0
2022-11-02 15:54:15,1013,48,-64,0,-1,0,21,36,3,34.3,35.91,1018.16,0,0
2022-11-02 15:54:15,1013,48,-64,0,-1,0,21,36,3,34.3,35.91,1018.16,0,0
2022-11-02 15:54:15,1013,48,-64,0,-1,0,21,36,3,34.3,35.91,1018.16,0,0
2022-11-02 15:54:15,1013,48,-64,0,-1,0,21,36,3,34.3,35.91,1018.16,0,0
2022-11-02 15:54:15,1013,48,-64,0,-1,0,21,36,3,34.3,35.91,1018.16,0,0
2022-11-02 15:54:15,1013,48,-64,0,-1,0,21,36,3,34.3,35.91,1018.16,0,0
2022-11-02 15:54:15,1013,48,-64,0,-1,0,21,36,3,34.3,35.91,1018.16,0,0
2022-11-02 15:54:15,1015,54,-54,0,0,0,20,38,0,34.3,35.91,1018.14,0,0
2022-11-02 15:54:15,1015,54,-54,0,0,0,20,38,0,34.3,35.91,1018.14,0,0
2022-11-02 15:54:15,1015,54,-54,0,0,0,20,38,0,34.3,35.91,1018.14,0,0
2022-11-02 15:54:15,1015,54,-54,0,0,0,20,38,0,34.3,35.91,1018.14,0,0
2022-11-02 15:54:15,1015,54,-54,0,0,0,20,38,0,34.3,35.91,1018.14,0,0
2022-11-02 15:54:15,1015,54,-54,0,0,0,20,38,0,34.3,35.91,1018.14,0,0
2022-11-02 15:54:15,1015,54,-54,0,0,0,20,38,0,34.3,35.91,1018.14,0,0
2022-11-02 15:54:15,1015,54,-54,0,0,0,20,38,0,34.3,35.91,1018.14,0,0
2022-11-02 15:54:15,1015,54,-54,0,0,0,20,38,0,34.3,35.91,1018.14,0,0
2022-11-02 15:54:15,1015,54,-54,0,0,0,20,38,0,34.3,35.91,1018.14,0,0
2022-11-02 15:54:15,1015,54,-54,0,0,0,20,38,0,34.3,35.91,1018.14,0,0
2022-11-02 15:54:15,1015,54,-54,0,0,0,20,38,0,34.3,35.91,1018.14,0,0
2022-11-02 15:54:15,1022,46,-54,0,0,0,22,35,-3,34.3,35.91,1018.14,0,0
2022-11-02 15:54:15,1022,46,-54,0,0,0,22,35,-3,34.3,35.91,1018.14,0,0
2022-11-02 15:54:15,1022,46,-54,0,0,0,22,35,-3,34.3,35.91,1018.14,0,0
2022-11-02 15:54:15,1022,46,-54,0,0,0,22,35,-3,34.3,35.91,1018.14,0,0
2022-11-02 15:54:15,1022,46,-54,0,0,0,22,35,-3,34.3,35.91,1018.14,0,0
2022-11-02 15:54:15,1022,46,-54,0,0,0,22,35,-3,34.3,35.91,1018.14,0,0
2022-11-02 15:54:15,1022,46,-54,0,0,0,22,35,-3,34.3,35.91,1018.14,0,0
2022-11-02 15:54:15,1022,46,-54,0,0,0,22,35,-3,34.3,35.91,1018.14,0,0
2022-11-02 15:54:15,1022,46,-54,0,0,0,22,35,-3,34.3,35.91,1018.14,0,0
2022-11-02 15:54:15,1022,46,-54,0,0,0,22,35,-3,34.3,35.91,1018.14,0,0
2022-11-02 15:54:15,1022,46,-54,0,0,0,22,35,-3,34.3,35.91,1018.14,0,0
2022-11-02 15:54:15,1022,46,-54,0,0,0,22,35,-3,34.3,35.91,1018.14,0,0
2022-11-02 15:54:15,1024,46,-40,0,-1,0,21,40,2,34.3,35.91,1018.14,0,0
2022-11-02 15:54:15,1024,46,-40,0,-1,0,21,40,2,34.3,35.91,1018.14,0,0
2022-11-02 15:54:15,1024,46,-40,0,-1,0,21,40,2,34.3,35.91,1018.14,0,0
2022-11-02 15:54:15,1024,46,-40,0,-1,0,21,40,2,34.3,35.91,1018.14,0,0
2022-11-02 15:54:15,1024,46,-40,0,-1,0,21,40,2,34.3,35.91,1018.14,0,0
2022-11-02 15:54:15,1024,46,-40,0,-1,0,21,40,2,34.3,35.91,1018.14,0,0
2022-11-02 15:54:15,1024,46,-40,0,-1,0,21,40,2,34.3,35.91,1018.14,0,0
2022-11-02 15:54:15,1024,46,-40,0,-1,0,21,40,2,34.3,35.91,1018.14,0,0
2022-11-02 15:54:15,1024,46,-40,0,-1,0,21,40,2,34.3,35.91,1018.14,0,0
2022-11-02 15:54:15,1024,46,-40,0,-1,0,21,40,2,34.3,35.91,1018.14,0,0
2022-11-02 15:54:15,1024,46,-40,0,-1,0,21,40,2,34.3,35.91,1018.14,0,0
2022-11-02 15:54:15,1024,46,-40,0,-1,0,21,40,2,34.3,35.91,1018.14,0,0
2022-11-02 15:54:15,1022,46,-56,1,0,0,20,37,-5,34.3,35.91,1018.14,0,0
2022-11-02 15:54:15,1022,46,-56,1,0,0,20,37,-5,34.3,35.91,1018.14,0,0
2022-11-02 15:54:15,1022,46,-56,1,0,0,20,37,-5,34.3,35.91,1018.14,0,0
2022-11-02 15:54:15,1022,46,-56,1,0,0,20,37,-5,34.3,35.91,1018.14,0,0
2022-11-02 15:54:15,1022,46,-56,1,0,0,20,37,-5,34.3,35.91,1018.14,0,0
2022-11-02 15:54:15,1022,46,-56,1,0,0,20,37,-5,34.3,35.91,1018.14,0,0
2022-11-02 15:54:15,1022,46,-56,1,0,0,20,37,-5,34.3,35.91,1018.14,0,0
2022-11-02 15:54:15,1022,46,-56,1,0,0,20,37,-5,34.3,35.91,1018.14,0,0
2022-11-02 15:54:15,1022,46,-56,1,0,0,20,37,-5,34.3,35.91,1018.14,0,0
2022-11-02 15:54:15,1022,46,-56,1,0,0,20,37,-5,34.3,35.91,1018.14,0,0
2022-11-02 15:54:15,1022,46,-56,1,0,0,20,37,-5,34.3,35.91,1018.14,0,0
2022-11-02 15:54:15,1022,46,-56,1,0,0,20,37,-5,34.3,35.91,1018.14,0,0
2022-11-02 15:54:15,1013,56,-58,0,0,0,23,37,2,34.3,35.91,1018.14,0,0
2022-11-02 15:54:15,1013,56,-58,0,0,0,23,37,2,34.3,35.91,1018.14,0,0
2022-11-02 15:54:15,1013,56,-58,0,0,0,23,37,2,34.3,35.91,1018.14,0,0
2022-11-02 15:54:15,1013,56,-58,0,0,0,23,37,2,34.3,35.91,1018.14,0,0
2022-11-02 15:54:15,1013,56,-58,0,0,0,23,37,2,34.3,35.91,1018.14,0,0
2022-11-02 15:54:15,1013,56,-58,0,0,0,23,37,2,34.3,35.91,1018.14,0,0
2022-11-02 15:54:15,1013,56,-58,0,0,0,23,37,2,34.3,35.91,1018.14,0,0
2022-11-02 15:54:15,1013,56,-58,0,0,0,23,37,2,34.3,35.91,1018.14,0,0
2022-11-02 15:54:15,1013,56,-58,0,0,0,23,37,2,34.3,35.91,1018.14,0,0
2022-11-02 15:54:15,1013,56,-58,0,0,0,23,37,2,34.3,35.91,1018.14,0,0
2022-11-02 15:54:15,1013,56,-58,0,0,0,23,37,2,34.3,35.91,1018.14,0,0
2022-11-02 15:54:15,1013,56,-58,0,0,0,23,37,2,34.3,35.91,1018.14,0,0
2022-11-02 15:54:15,1015,66,-60,0,0,0,21,38,-2,34.3,35.91,1018.14,0,0
2022-11-02 15:54:15,1015,66,-60,0,0,0,21,38,-2,34.3,35.91,1018.14,0,0
2022-11-02 15:54:15,1015,66,-60,0,0,0,21,38,-2,34.3,35.91,1018.14,0,0
2022-11-02 15:54:15,1015,66,-60,0,0,0,21,38,-2,34.3,35.91,1018.14,0,0
2022-11-02 15:54:15,1015,66,-60,0,0,0,21,38,-2,34.3,35.91,1018.14,0,0
2022-11-02 15:54:15,1015,66,-60,0,0,0,21,38,-2,34.3,35.91,1018.14,0,0
2022-11-02 15:54:15,1015,66,-60,0,0,0,21,38,-2,34.3,35.91,1018.14,0,0
2022-11-02 15:54:15,1015,66,-60,0,0,0,21,38,-2,34.3,35.91,1018.14,0,0
2022-11-02 15:54:15,1015,66,-60,0,0,0,21,38,-2,34.3,35.91,1018.14,0,0
2022-11-02 15:54:15,1015,66,-60,0,0,0,21,38,-2,34.3,35.91,1018.14,0,0
2022-11-02 15:54:15,1015,66,-60,0,0,0,21,38,-2,34.3,35.91,1018.14,0,0
2022-11-02 15:54:15,1015,66,-60,0,0,0,21,38,-2,34.3,35.91,1018.14,0,0
2022-11-02 15:54:15,1022,50,-52,0,0,0,18,39,6,34.3,35.91,1018.14,0,0
2022-11-02 15:54:15,1022,50,-52,0,0,0,18,39,6,34.3,35.91,1018.14,0,0
2022-11-02 15:54:15,1022,50,-52,0,0,0,18,39,6,34.3,35.91,1018.14,0,0
2022-11-02 15:54:15,1022,50,-52,0,0,0,18,39,6,34.3,35.91,1018.14,0,0
2022-11-02 15:54:15,1022,50,-52,0,0,0,18,39,6,34.3,35.91,1018.14,0,0
2022-11-02 15:54:15,1022,50,-52,0,0,0,18,39,6,34.3,35.91,1018.14,0,0
2022-11-02 15:54:15,1022,50,-52,0,0,0,18,39,6,34.3,35.91,1018.14,0,0
2022-11-02 15:54:15,1022,50,-52,0,0,0,18,39,6,34.3,35.91,1018.14,0,0
2022-11-02 15:54:15,1022,50,-52,0,0,0,18,39,6,34.3,35.91,1018.14,0,0
2022-11-02 15:54:15,1022,50,-52,0,0,0,18,39,6,34.3,35.91,1018.14,0,0
2022-11-02 15:54:15,1022,50,-52,0,0,0,18,39,6,34.3,35.91,1018.14,0,0
2022-11-02 15:54:15,1022,50,-52,0,0,0,18,39,6,34.3,35.91,1018.14,0,0
2022-11-02 15:54:15,1011,42,-54,0,-1,0,21,40,0,34.3,35.91,1018.14,0,0
2022-11-02 15:54:15,1011,42,-54,0,-1,0,21,40,0,34.3,35.91,1018.14,0,0
2022-11-02 15:54:15,1011,42,-54,0,-1,0,21,40,0,34.3,35.91,1018.14,0,0
2022-11-02 15:54:15,1011,42,-54,0,-1,0,21,40,0,34.3,35.91,1018.14,0,0
2022-11-02 15:54:15,1011,42,-54,0,-1,0,21,40,0,34.3,35.91,1018.14,0,0
2022-11-02 15:54:15,1011,42,-54,0,-1,0,21,40,0,34.3,35.91,1018.14,0,0
2022-11-02 15:54:15,1011,42,-54,0,-1,0,21,40,0,34.3,35.91,1018.14,0,0
2022-11-02 15:54:15,1011,42,-54,0,-1,0,21,40,0,34.3,35.91,1018.14,0,0
2022-11-02 15:54:15,1011,42,-54,0,-1,0,21,40,0,34.3,35.91,1018.14,0,0
2022-11-02 15:54:15,1011,42,-54,0,-1,0,21,40,0,34.3,35.91,1018.14,0,0
2022-11-02 15:54:15,1011,42,-54,0,-1,0,21,40,0,34.3,35.91,1018.14,0,0
2022-11-02 15:54:15,1011,42,-54,0,-1,0,21,40,0,34.3,35.91,1018.14,0,0
2022-11-02 15:54:16,1011,62,-70,0,0,0,20,38,0,34.3,35.91,1018.14,0,0
2022-11-02 15:54:16,1011,62,-70,0,0,0,20,38,0,34.3,35.91,1018.14,0,0
2022-11-02 15:54:16,1011,62,-70,0,0,0,20,38,0,34.3,35.91,1018.14,0,0
2022-11-02 15:54:16,1011,62,-70,0,0,0,20,38,0,34.3,35.91,1018.14,0,0
2022-11-02 15:54:16,1011,62,-70,0,0,0,20,38,0,34.3,35.91,1018.14,0,0
2022-11-02 15:54:16,1011,62,-70,0,0,0,20,38,0,34.3,35.91,1018.14,0,0
2022-11-02 15:54:16,1011,62,-70,0,0,0,20,38,0,34.3,35.91,1018.14,0,0
2022-11-02 15:54:16,1011,62,-70,0,0,0,20,38,0,34.3,35.91,1018.14,0,0
2022-11-02 15:54:16,1011,62,-70,0,0,0,20,38,0,34.3,35.91,1018.14,0,0
2022-11-02 15:54:16,1011,62,-70,0,0,0,20,38,0,34.3,35.91,1018.14,0,0
2022-11-02 15:54:16,1011,62,-70,0,0,0,20,38,0,34.3,35.91,1018.14,0,0
2022-11-02 15:54:16,1011,62,-70,0,0,0,20,38,0,34.3,35.91,1018.14,0,0
2022-11-02 15:54:16,1022,54,-54,3,0,0,22,35,0,34.3,35.91,1018.14,0,0
2022-11-02 15:54:16,1022,54,-54,3,0,0,22,35,0,34.3,35.91,1018.14,0,0
2022-11-02 15:54:16,1022,54,-54,3,0,0,22,35,0,34.3,35.91,1018.14,0,0
2022-11-02 15:54:16,1022,54,-54,3,0,0,22,35,0,34.3,35.91,1018.14,0,0
2022-11-02 15:54:16,1022,54,-54,3,0,0,22,35,0,34.3,35.91,1018.14,0,0
2022-11-02 15:54:16,1022,54,-54,3,0,0,22,35,0,34.3,35.91,1018.14,0,0
2022-11-02 15:54:16,1022,54,-54,3,0,0,22,35,0,34.3,35.91,1018.14,0,0
2022-11-02 15:54:16,1022,54,-54,3,0,0,22,35,0,34.3,35.91,1018.14,0,0
2022-11-02 15:54:16,1022,54,-54,3,0,0,22,35,0,34.3,35.91,1018.14,0,0
2022-11-02 15:54:16,1022,54,-54,3,0,0,22,35,0,34.3,35.91,1018.14,0,0
2022-11-02 15:54:16,1022,54,-54,3,0,0,22,35,0,34.3,35.91,1018.14,0,0
2022-11-02 15:54:16,1022,54,-54,3,0,0,22,35,0,34.3,35.91,1018.14,0,0
2022-11-02 15:54:16,1024,33,-48,4,0,-1,22,34,4,34.3,35.91,1018.14,0,0
2022-11-02 15:54:16,1024,33,-48,4,0,-1,22,34,4,34.3,35.91,1018.14,0,0
2022-11-02 15:54:16,1024,33,-48,4,0,-1,22,34,4,34.3,35.91,1018.14,0,0
2022-11-02 15:54:16,1024,33,-48,4,0,-1,22,34,4,34.3,35.91,1018.14,0,0
2022-11-02 15:54:16,1024,33,-48,4,0,-1,22,34,4,34.3,35.91,1018.14,0,0
2022-11-02 15:54:16,1024,33,-48,4,0,-1,22,34,4,34.3,35.91,1018.14,0,0
2022-11-02 15:54:16,1024,33,-48,4,0,-1,22,34,4,34.3,35.91,1018.14,0,0
2022-11-02 15:54:16,1024,33,-48,4,0,-1,22,34,4,34.3,35.91,1018.14,0,0
2022-11-02 15:54:16,1024,33,-48,4,0,-1,22,34,4,34.3,35.91,1018.14,0,0
2022-11-02 15:54:16,1024,33,-48,4,0,-1,22,34,4,34.3,35.91,1018.14,0,0
2022-11-02 15:54:16,1024,33,-48,4,0,-1,22,34,4,34.3,35.91,1018.14,0,0
2022-11-02 15:54:16,1024,33,-48,4,0,-1,22,34,4,34.3,35.91,1018.14,0,0
2022-11-02 15:54:16,1016,60,-60,1,0,-1,18,33,3,34.3,35.91,1018.14,0,0
2022-11-02 15:54:16,1016,60,-60,1,0,-1,18,33,3,34.3,35.91,1018.14,0,0
2022-11-02 15:54:16,1016,60,-60,1,0,-1,18,33,3,34.3,35.91,1018.14,0,0
2022-11-02 15:54:16,1016,60,-60,1,0,-1,18,33,3,34.3,35.91,1018.14,0,0
2022-11-02 15:54:16,1016,60,-60,1,0,-1,18,33,3,34.3,35.91,1018.14,0,0
2022-11-02 15:54:16,1016,60,-60,1,0,-1,18,33,3,34.3,35.91,1018.14,0,0
2022-11-02 15:54:16,1016,60,-60,1,0,-1,18,33,3,34.3,35.91,1018.14,0,0
2022-11-02 15:54:16,1016,60,-60,1,0,-1,18,33,3,34.3,35.91,1018.14,0,0
2022-11-02 15:54:16,1016,60,-60,1,0,-1,18,33,3,34.3,35.91,1018.14,0,0
2022-11-02 15:54:16,1016,60,-60,1,0,-1,18,33,3,34.3,35.91,1018.14,0,0
2022-11-02 15:54:16,1016,60,-60,1,0,-1,18,33,3,34.3,35.91,1018.14,0,0
2022-11-02 15:54:16,1016,60,-60,1,0,-1,18,33,3,34.3,35.91,1018.14,0,0
2022-11-02 15:54:16,1022,66,-66,0,0,0,20,36,0,34.3,35.91,1018.14,0,0
2022-11-02 15:54:16,1022,66,-66,0,0,0,20,36,0,34.3,35.91,1018.14,0,0
2022-11-02 15:54:16,1022,66,-66,0,0,0,20,36,0,34.3,35.91,1018.14,0,0
2022-11-02 15:54:16,1022,66,-66,0,0,0,20,36,0,34.3,35.91,1018.14,0,0
2022-11-02 15:54:16,1022,66,-66,0,0,0,20,36,0,34.3,35.91,1018.14,0,0
2022-11-02 15:54:16,1022,66,-66,0,0,0,20,36,0,34.3,35.91,1018.14,0,0
2022-11-02 15:54:16,1022,66,-66,0,0,0,20,36,0,34.3,35.91,1018.14,0,0
2022-11-02 15:54:16,1022,66,-66,0,0,0,20,36,0,34.3,35.91,1018.14,0,0
2022-11-02 15:54:16,1022,66,-66,0,0,0,20,36,0,34.3,35.91,1018.14,0,0
2022-11-02 15:54:16,1022,66,-66,0,0,0,20,36,0,34.3,35.91,1018.14,0,0
2022-11-02 15:54:16,1022,66,-66,0,0,0,20,36,0,34.3,35.91,1018.14,0,0
2022-11-02 15:54:16,1022,66,-66,0,0,0,20,36,0,34.3,35.91,1018.14,0,0
2022-11-02 15:54:16,1016,58,-50,0,0,0,21,36,0,34.3,35.91,1018.14,0,0
2022-11-02 15:54:16,1016,58,-50,0,0,0,21,36,0,34.3,35.91,1018.14,0,0
2022-11-02 15:54:16,1016,58,-50,0,0,0,21,36,0,34.3,35.91,1018.14,0,0
2022-11-02 15:54:16,1016,58,-50,0,0,0,21,36,0,34.3,35.91,1018.14,0,0
2022-11-02 15:54:16,1016,58,-50,0,0,0,21,36,0,34.3,35.91,1018.14,0,0
2022-11-02 15:54:16,1016,58,-50,0,0,0,21,36,0,34.3,35.91,1018.14,0,0
2022-11-02 15:54:16,1016,58,-50,0,0,0,21,36,0,34.3,35.91,1018.14,0,0
2022-11-02 15:54:16,1016,58,-50,0,0,0,21,36,0,34.3,35.91,1018.14,0,0
2022-11-02 15:54:16,1016,58,-50,0,0,0,21,36,0,34.3,35.91,1018.14,0,0
2022-11-02 15:54:16,1016,58,-50,0,0,0,21,36,0,34.3,35.91,1018.14,0,0
2022-11-02 15:54:16,1016,58,-50,0,0,0,21,36,0,34.3,35.91,1018.14,0,0
2022-11-02 15:54:16,1016,58,-50,0,0,0,21,36,0,34.3,35.91,1018.14,0,0
2022-11-02 15:54:16,1022,58,-64,0,0,0,21,33,-1,34.3,35.91,1018.14,0,0
2022-11-02 15:54:16,1022,58,-64,0,0,0,21,33,-1,34.3,35.91,1018.14,0,0
2022-11-02 15:54:16,1022,58,-64,0,0,0,21,33,-1,34.3,35.91,1018.14,0,0
2022-11-02 15:54:16,1022,58,-64,0,0,0,21,33,-1,34.3,35.91,1018.14,0,0
2022-11-02 15:54:16,1022,58,-64,0,0,0,21,33,-1,34.3,35.91,1018.14,0,0
2022-11-02 15:54:16,1022,58,-64,0,0,0,21,33,-1,34.3,35.91,1018.14,0,0
2022-11-02 15:54:16,1022,58,-64,0,0,0,21,33,-1,34.3,35.91,1018.14,0,0
2022-11-02 15:54:16,1022,58,-64,0,0,0,21,33,-1,34.3,35.91,1018.14,0,0
2022-11-02 15:54:16,1022,58,-64,0,0,0,21,33,-1,34.3,35.91,1018.14,0,0
2022-11-02 15:54:16,1022,58,-64,0,0,0,21,33,-1,34.3,35.91,1018.14,0,0
2022-11-02 15:54:16,1022,58,-64,0,0,0,21,33,-1,34.3,35.91,1018.14,0,0
2022-11-02 15:54:16,1022,58,-64,0,0,0,21,33,-1,34.3,35.91,1018.14,0,0
2022-11-02 15:54:16,1016,56,-70,0,0,0,23,34,3,34.3,35.91,1018.14,0,0
2022-11-02 15:54:16,1016,56,-70,0,0,0,23,34,3,34.3,35.91,1018.14,0,0
2022-11-02 15:54:16,1016,56,-70,0,0,0,23,34,3,34.3,35.91,1018.14,0,0
2022-11-02 15:54:16,1016,56,-70,0,0,0,23,34,3,34.3,35.91,1018.14,0,0
2022-11-02 15:54:16,1016,56,-70,0,0,0,23,34,3,34.3,35.91,1018.14,0,0
2022-11-02 15:54:16,1016,56,-70,0,0,0,23,34,3,34.3,35.91,1018.14,0,0
2022-11-02 15:54:16,1016,56,-70,0,0,0,23,34,3,34.3,35.91,1018.14,0,0
2022-11-02 15:54:16,1016,56,-70,0,0,0,23,34,3,34.3,35.91,1018.14,0,0
2022-11-02 15:54:16,1016,56,-70,0,0,0,23,34,3,34.3,35.91,1018.14,0,0
2022-11-02 15:54:16,1016,56,-70,0,0,0,23,34,3,34.3,35.91,1018.14,0,0
2022-11-02 15:54:16,1016,56,-70,0,0,0,23,34,3,34.3,35.91,1018.14,0,0
2022-11-02 15:54:16,1016,56,-70,0,0,0,23,34,3,34.3,35.91,1018.14,0,0
2022-11-02 15:54:16,1015,60,-56,0,0,0,23,37,2,34.3,35.91,1018.14,0,0
2022-11-02 15:54:16,1015,60,-56,0,0,0,23,37,2,34.3,35.91,1018.14,0,0
2022-11-02 15:54:16,1015,60,-56,0,0,0,23,37,2,34.3,35.91,1018.14,0,0
