Time,Ax,Ay,Az,Gx,Gy,Gz,Mx,My,Mz,Temp,Humidity,Pressure,Mic,Light
2022-11-02 15:14:12,1024,-3,-7,-7,3,2,20,-3,108,31.8,30.7,1018.1,1,0
2022-11-02 15:14:12,1024,-3,-7,-7,3,2,20,-3,108,31.8,30.7,1018.1,1,0
2022-11-02 15:14:12,1032,-37,-15,-11,5,5,20,-6,111,31.8,30.7,1018.1,1,0
2022-11-02 15:14:12,1032,-37,-15,-11,5,5,20,-6,111,31.8,30.7,1018.1,1,0
2022-11-02 15:14:12,1040,27,1,-5,4,3,17,-9,110,31.8,30.7,1018.1,1,0
2022-11-02 15:14:12,1040,27,1,-5,4,3,17,-9,110,31.8,30.7,1018.1,1,0
2022-11-02 15:14:12,1028,-17,25,-4,2,2,19,-7,112,31.8,30.7,1018.1,1,0
2022-11-02 15:14:12,1028,-17,25,-4,2,2,19,-7,112,31.8,30.7,1018.1,1,0
2022-11-02 15:14:12,1024,-74,-48,-20,8,7,20,-7,113,31.8,30.7,1018.1,1,0
2022-11-02 15:14:12,1024,-74,-48,-20,8,7,20,-7,113,31.8,30.7,1018.1,1,0
2022-11-02 15:14:12,1065,-13,-7,0,-4,0,17,-10,111,31.7,31.49,1018.17,1,0
2022-11-02 15:14:12,1065,-13,-7,0,-4,0,17,-10,111,31.7,31.49,1018.17,1,0
2022-11-02 15:14:12,1005,1,80,-1,-8,2,18,-10,113,31.7,31.49,1018.17,1,0
2022-11-02 15:14:12,1005,1,80,-1,-8,2,18,-10,113,31.7,31.49,1018.17,1,0
2022-11-02 15:14:12,1048,-64,78,-9,-3,-5,20,-11,107,31.7,31.49,1018.17,1,0
2022-11-02 15:14:12,1048,-64,78,-9,-3,-5,20,-11,107,31.7,31.49,1018.17,1,0
2022-11-02 15:14:12,1026,52,39,-5,5,-14,20,-9,107,31.7,31.49,1018.17,1,0
2022-11-02 15:14:12,1026,52,39,-5,5,-14,20,-9,107,31.7,31.49,1018.17,1,0
2022-11-02 15:14:13,999,105,76,-17,7,-8,20,-10,102,31.7,31.49,1018.17,1,0
2022-11-02 15:14:13,999,105,76,-17,7,-8,20,-10,102,31.7,31.49,1018.17,1,0
2022-11-02 15:14:13,1048,64,64,-23,6,-8,21,-11,109,31.7,31.49,1018.17,1,0
2022-11-02 15:14:13,1048,64,64,-23,6,-8,21,-11,109,31.7,31.49,1018.17,1,0
2022-11-02 15:14:13,989,126,17,-6,0,-9,19,-16,106,31.7,31.49,1018.17,1,0
2022-11-02 15:14:13,989,126,17,-6,0,-9,19,-16,106,31.7,31.49,1018.17,1,0
2022-11-02 15:14:13,1040,33,46,-15,-1,3,20,-16,107,31.7,31.49,1018.17,1,0
2022-11-02 15:14:13,1040,33,46,-15,-1,3,20,-16,107,31.7,31.49,1018.17,1,0
2022-11-02 15:14:13,1011,146,5,-12,-1,0,20,-16,110,31.7,31.49,1018.17,1,0
2022-11-02 15:14:13,1011,146,5,-12,-1,0,20,-16,110,31.7,31.49,1018.17,1,0
2022-11-02 15:14:13,991,107,3,-8,0,4,20,-20,103,31.7,31.49,1018.17,1,0
2022-11-02 15:14:13,991,107,3,-8,0,4,20,-20,103,31.7,31.49,1018.17,1,0
2022-11-02 15:14:13,1016,109,-19,0,-2,7,20,-20,107,31.7,31.5,1018.16,1,0
2022-11-02 15:14:13,1016,109,-19,0,-2,7,20,-20,107,31.7,31.5,1018.16,1,0
2022-11-02 15:14:13,1095,21,-23,-7,0,15,20,-20,97,31.7,31.5,1018.16,1,0
2022-11-02 15:14:13,1095,21,-23,-7,0,15,20,-20,97,31.7,31.5,1018.16,1,0
2022-11-02 15:14:13,1050,-19,58,14,5,9,22,-18,104,31.7,31.5,1018.16,1,0
2022-11-02 15:14:13,1050,-19,58,14,5,9,22,-18,104,31.7,31.5,1018.16,1,0
2022-11-02 15:14:13,1001,52,21,12,-2,18,20,-19,101,31.7,31.5,1018.16,1,0
2022-11-02 15:14:13,1001,52,21,12,-2,18,20,-19,101,31.7,31.5,1018.16,1,0
2022-11-02 15:14:14,1061,-31,27,35,-4,23,19,-18,105,31.7,31.5,1018.16,1,0
2022-11-02 15:14:14,1061,-31,27,35,-4,23,19,-18,105,31.7,31.5,1018.16,1,0
2022-11-02 15:14:14,938,-162,101,25,-4,27,19,-19,105,31.7,31.5,1018.16,1,0
2022-11-02 15:14:14,938,-162,101,25,-4,27,19,-19,105,31.7,31.5,1018.16,1,0
2022-11-02 15:14:14,1079,-115,-27,24,-7,20,17,-18,106,31.7,31.5,1018.16,1,0
2022-11-02 15:14:14,1079,-115,-27,24,-7,20,17,-18,106,31.7,31.5,1018.16,1,0
2022-11-02 15:14:14,958,-162,-23,34,-9,13,18,-14,104,31.7,31.5,1018.16,1,0
2022-11-02 15:14:14,958,-162,-23,34,-9,13,18,-14,104,31.7,31.5,1018.16,1,0
2022-11-02 15:14:14,874,-160,-101,25,0,-2,18,-15,107,31.7,31.5,1018.16,1,0
2022-11-02 15:14:14,874,-160,-101,25,0,-2,18,-15,107,31.7,31.5,1018.16,1,0
2022-11-02 15:14:14,1022,-148,-113,9,0,-6,20,-11,110,31.7,31.5,1018.16,1,0
2022-11-02 15:14:14,1022,-148,-113,9,0,-6,20,-11,110,31.7,31.5,1018.16,1,0
2022-11-02 15:14:14,976,-39,-179,17,-26,-10,21,-9,111,31.7,31.5,1018.14,1,0
2022-11-02 15:14:14,976,-39,-179,17,-26,-10,21,-9,111,31.7,31.5,1018.14,1,0
2022-11-02 15:14:14,1262,-415,304,32,-12,-6,21,-2,106,31.7,31.5,1018.14,1,0
2022-11-02 15:14:14,1262,-415,304,32,-12,-6,21,-2,106,31.7,31.5,1018.14,1,0
2022-11-02 15:14:14,894,-107,76,19,10,-18,22,-3,107,31.7,31.5,1018.14,1,0
2022-11-02 15:14:14,894,-107,76,19,10,-18,22,-3,107,31.7,31.5,1018.14,1,0
2022-11-02 15:14:14,812,193,39,6,20,-35,24,2,107,31.7,31.5,1018.14,1,0
2022-11-02 15:14:14,812,193,39,6,20,-35,24,2,107,31.7,31.5,1018.14,1,0
2022-11-02 15:14:15,1040,121,17,0,21,-3,23,4,109,31.7,31.5,1018.14,1,0
2022-11-02 15:14:15,1040,121,17,0,21,-3,23,4,109,31.7,31.5,1018.14,1,0
2022-11-02 15:14:15,1147,105,3,-13,-12,6,21,7,108,31.7,31.5,1018.14,1,0
2022-11-02 15:14:15,1147,105,3,-13,-12,6,21,7,108,31.7,31.5,1018.14,1,0
2022-11-02 15:14:15,1542,171,296,2,-8,-17,21,5,105,31.7,31.5,1018.14,1,0
2022-11-02 15:14:15,1542,171,296,2,-8,-17,21,5,105,31.7,31.5,1018.14,1,0
2022-11-02 15:14:15,972,74,-9,35,-26,6,26,7,104,31.7,31.5,1018.14,1,0
2022-11-02 15:14:15,972,74,-9,35,-26,6,26,7,104,31.7,31.5,1018.14,1,0
2022-11-02 15:14:15,845,56,-66,85,-15,7,31,13,100,31.7,31.5,1018.14,1,0
2022-11-02 15:14:15,845,56,-66,85,-15,7,31,13,100,31.7,31.5,1018.14,1,0
2022-11-02 15:14:15,862,-160,-23,70,-15,2,28,14,100,31.7,31.5,1018.14,1,0
2022-11-02 15:14:15,862,-160,-23,70,-15,2,28,14,100,31.7,31.5,1018.14,1,0
2022-11-02 15:14:15,1052,-138,-107,23,-3,-5,31,21,97,31.7,31.52,1018.18,1,0
2022-11-02 15:14:15,1052,-138,-107,23,-3,-5,31,21,97,31.7,31.52,1018.18,1,0
2022-11-02 15:14:15,1378,327,-68,14,-17,1,34,26,98,31.7,31.52,1018.18,1,0
2022-11-02 15:14:15,1378,327,-68,14,-17,1,34,26,98,31.7,31.52,1018.18,1,0
2022-11-02 15:14:15,905,214,212,3,-5,0,34,26,95,31.7,31.52,1018.18,1,0
2022-11-02 15:14:15,905,214,212,3,-5,0,34,26,95,31.7,31.52,1018.18,1,0
2022-11-02 15:14:15,931,-255,13,12,28,-18,37,26,97,31.7,31.52,1018.18,1,0
2022-11-02 15:14:15,931,-255,13,12,28,-18,37,26,97,31.7,31.52,1018.18,1,0
2022-11-02 15:14:16,938,240,0,2,10,-13,35,31,96,31.7,31.52,1018.18,1,0
2022-11-02 15:14:16,938,240,0,2,10,-13,35,31,96,31.7,31.52,1018.18,1,0
2022-11-02 15:14:16,901,138,-21,16,3,0,34,34,101,31.7,31.52,1018.18,1,0
2022-11-02 15:14:16,901,138,-21,16,3,0,34,34,101,31.7,31.52,1018.18,1,0
2022-11-02 15:14:16,1173,347,-103,10,1,-9,33,36,94,31.7,31.52,1018.18,1,0
2022-11-02 15:14:16,1173,347,-103,10,1,-9,33,36,94,31.7,31.52,1018.18,1,0
2022-11-02 15:14:16,1333,-64,366,27,11,-27,35,34,95,31.7,31.52,1018.18,1,0
2022-11-02 15:14:16,1333,-64,366,27,11,-27,35,34,95,31.7,31.52,1018.18,1,0
2022-11-02 15:14:16,1018,242,-25,-6,-10,9,36,36,95,31.7,31.52,1018.18,1,0
2022-11-02 15:14:16,1018,242,-25,-6,-10,9,36,36,95,31.7,31.52,1018.18,1,0
2022-11-02 15:14:16,769,-83,-54,76,-11,3,35,38,92,31.7,31.52,1018.18,1,0
2022-11-02 15:14:16,769,-83,-54,76,-11,3,35,38,92,31.7,31.52,1018.18,1,0
2022-11-02 15:14:16,948,3,-128,45,0,2,37,40,88,31.7,31.53,1018.16,1,0
2022-11-02 15:14:16,948,3,-128,45,0,2,37,40,88,31.7,31.53,1018.16,1,0
2022-11-02 15:14:16,1128,-13,-97,35,6,2,39,42,79,31.7,31.53,1018.16,1,0
2022-11-02 15:14:16,1128,-13,-97,35,6,2,39,42,79,31.7,31.53,1018.16,1,0
2022-11-02 15:14:16,1333,310,-29,41,-17,4,41,43,81,31.7,31.53,1018.16,1,0
2022-11-02 15:14:16,1333,310,-29,41,-17,4,41,43,81,31.7,31.53,1018.16,1,0
2022-11-02 15:14:16,708,128,158,46,6,-8,41,47,83,31.7,31.53,1018.16,1,0
2022-11-02 15:14:16,708,128,158,46,6,-8,41,47,83,31.7,31.53,1018.16,1,0
2022-11-02 15:14:17,1155,-44,39,49,21,0,43,45,78,31.7,31.53,1018.16,1,0
2022-11-02 15:14:17,1155,-44,39,49,21,0,43,45,78,31.7,31.53,1018.16,1,0
2022-11-02 15:14:17,843,222,-25,35,10,-3,40,49,75,31.7,31.53,1018.16,1,0
2022-11-02 15:14:17,843,222,-25,35,10,-3,40,49,75,31.7,31.53,1018.16,1,0
2022-11-02 15:14:17,942,179,11,27,10,11,37,51,71,31.7,31.53,1018.16,1,0
2022-11-02 15:14:17,942,179,11,27,10,11,37,51,71,31.7,31.53,1018.16,1,0
2022-11-02 15:14:17,1278,203,-5,28,-12,-1,36,49,73,31.7,31.53,1018.16,1,0
2022-11-02 15:14:17,1278,203,-5,28,-12,-1,36,49,73,31.7,31.53,1018.16,1,0
2022-11-02 15:14:17,790,19,169,60,-15,-6,37,52,71,31.7,31.53,1018.16,1,0
2022-11-02 15:14:17,790,19,169,60,-15,-6,37,52,71,31.7,31.53,1018.16,1,0
2022-11-02 15:14:17,1188,27,130,101,-9,9,37,55,67,31.7,31.53,1018.16,1,0
2022-11-02 15:14:17,1188,27,130,101,-9,9,37,55,67,31.7,31.53,1018.16,1,0
2022-11-02 15:14:17,853,-54,-21,131,-13,0,34,58,58,31.7,31.53,1018.18,1,0
2022-11-02 15:14:17,853,-54,-21,131,-13,0,34,58,58,31.7,31.53,1018.18,1,0
2022-11-02 15:14:17,808,19,-111,98,-5,-3,33,56,43,31.7,31.53,1018.18,1,0
2022-11-02 15:14:17,808,19,-111,98,-5,-3,33,56,43,31.7,31.53,1018.18,1,0
2022-11-02 15:14:17,1069,-1,-136,37,-17,0,29,58,36,31.7,31.53,1018.18,1,0
2022-11-02 15:14:17,1069,-1,-136,37,-17,0,29,58,36,31.7,31.53,1018.18,1,0
2022-11-02 15:14:17,1698,-140,191,80,0,7,26,56,35,31.7,31.53,1018.18,1,0
2022-11-02 15:14:17,1698,-140,191,80,0,7,26,56,35,31.7,31.53,1018.18,1,0
2022-11-02 15:14:18,749,31,103,79,16,-11,25,55,29,31.7,31.53,1018.18,1,0
2022-11-02 15:14:18,749,31,103,79,16,-11,25,55,29,31.7,31.53,1018.18,1,0
2022-11-02 15:14:18,966,64,42,26,11,-23,24,55,17,31.7,31.53,1018.18,1,0
2022-11-02 15:14:18,966,64,42,26,11,-23,24,55,17,31.7,31.53,1018.18,1,0
2022-11-02 15:14:18,929,148,-13,27,13,-9,22,52,20,31.7,31.53,1018.18,1,0
2022-11-02 15:14:18,929,148,-13,27,13,-9,22,52,20,31.7,31.53,1018.18,1,0
2022-11-02 15:14:18,1116,124,62,9,0,8,18,53,25,31.7,31.53,1018.18,1,0
2022-11-02 15:14:18,1116,124,62,9,0,8,18,53,25,31.7,31.53,1018.18,1,0
2022-11-02 15:14:18,1563,35,177,19,5,-15,18,52,19,31.7,31.53,1018.18,1,0
2022-11-02 15:14:18,1563,35,177,19,5,-15,18,52,19,31.7,31.53,1018.18,1,0
2022-11-02 15:14:18,851,-15,-48,55,-14,-9,18,52,19,31.7,31.53,1018.18,1,0
2022-11-02 15:14:18,851,-15,-48,55,-14,-9,18,52,19,31.7,31.53,1018.18,1,0
2022-11-02 15:14:18,935,85,-56,88,-15,0,15,47,23,31.7,31.53,1018.11,1,0
2022-11-02 15:14:18,935,85,-56,88,-15,0,15,47,23,31.7,31.53,1018.11,1,0
2022-11-02 15:14:18,917,-87,-76,58,-7,2,14,44,18,31.7,31.53,1018.11,1,0
2022-11-02 15:14:18,917,-87,-76,58,-7,2,14,44,18,31.7,31.53,1018.11,1,0
2022-11-02 15:14:18,894,60,-136,27,0,-7,12,41,10,31.7,31.53,1018.11,1,0
2022-11-02 15:14:18,894,60,-136,27,0,-7,12,41,10,31.7,31.53,1018.11,1,0
2022-11-02 15:14:18,1475,226,-93,-7,-36,13,14,40,8,31.7,31.53,1018.11,1,0
2022-11-02 15:14:18,1475,226,-93,-7,-36,13,14,40,8,31.7,31.53,1018.11,1,0
2022-11-02 15:14:19,605,46,-64,-9,-4,-7,12,36,6,31.7,31.53,1018.11,1,0
2022-11-02 15:14:19,605,46,-64,-9,-4,-7,12,36,6,31.7,31.53,1018.11,1,0
2022-11-02 15:14:19,1239,-185,56,11,17,7,12,38,6,31.7,31.53,1018.11,1,0
2022-11-02 15:14:19,1239,-185,56,11,17,7,12,38,6,31.7,31.53,1018.11,1,0
2022-11-02 15:14:19,856,283,-29,-6,4,-16,9,33,9,31.7,31.53,1018.11,1,0
2022-11-02 15:14:19,856,283,-29,-6,4,-16,9,33,9,31.7,31.53,1018.11,1,0
2022-11-02 15:14:19,935,109,-29,18,18,8,9,34,13,31.7,31.53,1018.11,1,0
2022-11-02 15:14:19,935,109,-29,18,18,8,9,34,13,31.7,31.53,1018.11,1,0
2022-11-02 15:14:19,1136,66,-35,9,-2,7,7,35,12,31.7,31.53,1018.11,1,0
2022-11-02 15:14:19,1136,66,-35,9,-2,7,7,35,12,31.7,31.53,1018.11,1,0
2022-11-02 15:14:19,1278,103,304,-10,8,-16,9,36,15,31.7,31.53,1018.11,1,0
2022-11-02 15:14:19,1278,103,304,-10,8,-16,9,36,15,31.7,31.53,1018.11,1,0
2022-11-02 15:14:19,962,142,-78,66,-12,2,7,37,14,31.7,31.54,1018.11,1,0
2022-11-02 15:14:19,962,142,-78,66,-12,2,7,37,14,31.7,31.54,1018.11,1,0
2022-11-02 15:14:19,956,-60,-19,131,-6,-6,5,34,11,31.7,31.54,1018.11,1,0
2022-11-02 15:14:19,956,-60,-19,131,-6,-6,5,34,11,31.7,31.54,1018.11,1,0
2022-11-02 15:14:19,913,74,-29,117,-2,-3,5,26,10,31.7,31.54,1018.11,1,0
2022-11-02 15:14:19,913,74,-29,117,-2,-3,5,26,10,31.7,31.54,1018.11,1,0
2022-11-02 15:14:19,1044,-83,-9,117,4,-9,3,22,5,31.7,31.54,1018.11,1,0
2022-11-02 15:14:19,1044,-83,-9,117,4,-9,3,22,5,31.7,31.54,1018.11,1,0
2022-11-02 15:14:20,1175,70,337,101,24,0,3,13,2,31.7,31.54,1018.11,1,0
2022-11-02 15:14:20,1175,70,337,101,24,0,3,13,2,31.7,31.54,1018.11,1,0
2022-11-02 15:14:20,921,154,31,95,14,3,2,5,1,31.7,31.54,1018.11,1,0
2022-11-02 15:14:20,921,154,31,95,14,3,2,5,1,31.7,31.54,1018.11,1,0
2022-11-02 15:14:20,962,234,177,114,6,-9,5,-2,0,31.7,31.54,1018.11,1,0
2022-11-02 15:14:20,962,234,177,114,6,-9,5,-2,0,31.7,31.54,1018.11,1,0
2022-11-02 15:14:20,1059,169,160,110,10,9,7,-9,6,31.7,31.54,1018.11,1,0
2022-11-02 15:14:20,1059,169,160,110,10,9,7,-9,6,31.7,31.54,1018.11,1,0
2022-11-02 15:14:20,981,199,115,98,0,11,6,-22,17,31.7,31.54,1018.11,1,0
2022-11-02 15:14:20,981,199,115,98,0,11,6,-22,17,31.7,31.54,1018.11,1,0
2022-11-02 15:14:20,999,208,208,123,0,14,6,-28,22,31.7,31.54,1018.11,1,0
2022-11-02 15:14:20,999,208,208,123,0,14,6,-28,22,31.7,31.54,1018.11,1,0
2022-11-02 15:14:20,964,48,162,76,-4,10,6,-35,29,31.7,31.55,1018.17,1,0
2022-11-02 15:14:20,964,48,162,76,-4,10,6,-35,29,31.7,31.55,1018.17,1,0
2022-11-02 15:14:20,1237,93,31,33,0,-10,5,-35,37,31.7,31.55,1018.17,1,0
2022-11-02 15:14:20,1237,93,31,33,0,-10,5,-35,37,31.7,31.55,1018.17,1,0
2022-11-02 15:14:20,1059,111,-103,72,-21,20,7,-35,45,31.7,31.55,1018.17,1,0
2022-11-02 15:14:20,1059,111,-103,72,-21,20,7,-35,45,31.7,31.55,1018.17,1,0
2022-11-02 15:14:20,839,-160,-40,98,-24,17,5,-39,46,31.7,31.55,1018.17,1,0
2022-11-02 15:14:20,839,-160,-40,98,-24,17,5,-39,46,31.7,31.55,1018.17,1,0
2022-11-02 15:14:21,1020,-62,-29,96,-18,6,4,-37,60,31.7,31.55,1018.17,1,0
2022-11-02 15:14:21,1020,-62,-29,96,-18,6,4,-37,60,31.7,31.55,1018.17,1,0
2022-11-02 15:14:21,880,15,-117,69,-14,-11,1,-36,59,31.7,31.55,1018.17,1,0
2022-11-02 15:14:21,880,15,-117,69,-14,-11,1,-36,59,31.7,31.55,1018.17,1,0
2022-11-02 15:14:21,1077,31,-167,56,-8,-8,4,-32,67,31.7,31.55,1018.17,1,0
2022-11-02 15:14:21,1077,31,-167,56,-8,-8,4,-32,67,31.7,31.55,1018.17,1,0
2022-11-02 15:14:21,1192,-394,76,22,1,14,7,-30,75,31.7,31.55,1018.17,1,0
2022-11-02 15:14:21,1192,-394,76,22,1,14,7,-30,75,31.7,31.55,1018.17,1,0
2022-11-02 15:14:21,812,163,121,38,20,-15,6,-27,78,31.7,31.55,1018.17,1,0
2022-11-02 15:14:21,812,163,121,38,20,-15,6,-27,78,31.7,31.55,1018.17,1,0
2022-11-02 15:14:21,929,-117,-23,5,13,-14,9,-29,80,31.7,31.55,1018.17,1,0
2022-11-02 15:14:21,929,-117,-23,5,13,-14,9,-29,80,31.7,31.55,1018.17,1,0
2022-11-02 15:14:21,927,206,3,-1,6,-20,9,-25,81,31.7,31.57,1018.16,1,0
2022-11-02 15:14:21,927,206,3,-1,6,-20,9,-25,81,31.7,31.57,1018.16,1,0
2022-11-02 15:14:21,977,195,-5,9,17,3,9,-24,84,31.7,31.57,1018.16,1,0
2022-11-02 15:14:21,977,195,-5,9,17,3,9,-24,84,31.7,31.57,1018.16,1,0
2022-11-02 15:14:21,1085,156,-7,9,-4,0,9,-23,86,31.7,31.57,1018.16,1,0
2022-11-02 15:14:21,1085,156,-7,9,-4,0,9,-23,86,31.7,31.57,1018.16,1,0
2022-11-02 15:14:21,1430,48,253,-19,-6,-9,7,-23,85,31.7,31.57,1018.16,1,0
2022-11-02 15:14:21,1430,48,253,-19,-6,-9,7,-23,85,31.7,31.57,1018.16,1,0
2022-11-02 15:14:21,827,-52,-80,18,-23,5,10,-24,83,31.7,31.57,1018.16,1,0
2022-11-02 15:14:21,827,-52,-80,18,-23,5,10,-24,83,31.7,31.57,1018.16,1,0
2022-11-02 15:14:22,976,-121,-48,70,-19,1,14,-23,85,31.7,31.57,1018.16,1,0
2022-11-02 15:14:22,976,-121,-48,70,-19,1,14,-23,85,31.7,31.57,1018.16,1,0
2022-11-02 15:14:22,886,3,-101,19,-12,12,15,-23,91,31.7,31.57,1018.16,1,0
2022-11-02 15:14:22,886,3,-101,19,-12,12,15,-23,91,31.7,31.57,1018.16,1,0
2022-11-02 15:14:22,966,-9,-124,26,1,-7,15,-19,92,31.7,31.57,1018.16,1,0
2022-11-02 15:14:22,966,-9,-124,26,1,-7,15,-19,92,31.7,31.57,1018.16,1,0
2022-11-02 15:14:22,1323,167,-302,-7,-21,1,19,-13,89,31.7,31.57,1018.16,1,0
2022-11-02 15:14:22,1323,167,-302,-7,-21,1,19,-13,89,31.7,31.57,1018.16,1,0
2022-11-02 15:14:22,851,-263,62,-12,-8,2,21,-15,91,31.7,31.57,1018.16,1,0
2022-11-02 15:14:22,851,-263,62,-12,-8,2,21,-15,91,31.7,31.57,1018.16,1,0
2022-11-02 15:14:22,1116,-136,29,-6,3,6,19,-17,90,31.7,31.55,1018.23,1,0
2022-11-02 15:14:22,1116,-136,29,-6,3,6,19,-17,90,31.7,31.55,1018.23,1,0
2022-11-02 15:14:22,886,171,13,-42,7,-24,22,-14,89,31.7,31.55,1018.23,1,0
2022-11-02 15:14:22,886,171,13,-42,7,-24,22,-14,89,31.7,31.55,1018.23,1,0
2022-11-02 15:14:22,944,195,-103,-17,13,5,24,-18,91,31.7,31.55,1018.23,1,0
2022-11-02 15:14:22,944,195,-103,-17,13,5,24,-18,91,31.7,31.55,1018.23,1,0
2022-11-02 15:14:22,974,85,-17,-19,8,21,26,-15,89,31.7,31.55,1018.23,1,0
2022-11-02 15:14:22,974,85,-17,-19,8,21,26,-15,89,31.7,31.55,1018.23,1,0
2022-11-02 15:14:22,1315,115,-87,-10,-2,-14,26,-18,91,31.7,31.55,1018.23,1,0
2022-11-02 15:14:22,1315,115,-87,-10,-2,-14,26,-18,91,31.7,31.55,1018.23,1,0
2022-11-02 15:14:23,843,-269,132,18,9,-18,26,-19,97,31.7,31.55,1018.23,1,0
2022-11-02 15:14:23,843,-269,132,18,9,-18,26,-19,97,31.7,31.55,1018.23,1,0
2022-11-02 15:14:23,1239,81,-21,-18,-3,13,26,-17,91,31.7,31.55,1018.23,1,0
2022-11-02 15:14:23,1239,81,-21,-18,-3,13,26,-17,91,31.7,31.55,1018.23,1,0
2022-11-02 15:14:23,862,-103,-103,19,-8,0,31,-17,96,31.7,31.55,1018.23,1,0
2022-11-02 15:14:23,862,-103,-103,19,-8,0,31,-17,96,31.7,31.55,1018.23,1,0
2022-11-02 15:14:23,892,33,-167,1,-2,1,30,-16,88,31.7,31.55,1018.23,1,0
2022-11-02 15:14:23,892,33,-167,1,-2,1,30,-16,88,31.7,31.55,1018.23,1,0
2022-11-02 15:14:23,1182,-101,-95,3,-6,4,33,-13,87,31.7,31.55,1018.23,1,0
2022-11-02 15:14:23,1182,-101,-95,3,-6,4,33,-13,87,31.7,31.55,1018.23,1,0
2022-11-02 15:14:23,1417,-122,37,-12,-9,17,32,-11,88,31.7,31.59,1018.14,1,0
2022-11-02 15:14:23,1417,-122,37,-12,-9,17,32,-11,88,31.7,31.59,1018.14,1,0
2022-11-02 15:14:23,757,257,50,0,0,-6,36,-13,82,31.7,31.59,1018.14,1,0
2022-11-02 15:14:23,757,257,50,0,0,-6,36,-13,82,31.7,31.59,1018.14,1,0
2022-11-02 15:14:23,1011,-158,5,-36,17,-7,37,-13,81,31.7,31.59,1018.14,1,0
2022-11-02 15:14:23,1011,-158,5,-36,17,-7,37,-13,81,31.7,31.59,1018.14,1,0
2022-11-02 15:14:23,899,228,-29,-26,13,-8,35,-13,79,31.7,31.59,1018.14,1,0
2022-11-02 15:14:23,899,228,-29,-26,13,-8,35,-13,79,31.7,31.59,1018.14,1,0
2022-11-02 15:14:23,974,97,7,-23,6,13,37,-13,74,31.7,31.59,1018.14,1,0
2022-11-02 15:14:23,974,97,7,-23,6,13,37,-13,74,31.7,31.59,1018.14,1,0
2022-11-02 15:14:24,1153,70,-33,-21,1,-9,35,-13,78,31.7,31.59,1018.14,1,0
2022-11-02 15:14:24,1153,70,-33,-21,1,-9,35,-13,78,31.7,31.59,1018.14,1,0
2022-11-02 15:14:24,987,-39,185,-13,12,-16,34,-13,73,31.7,31.59,1018.14,1,0
2022-11-02 15:14:24,987,-39,185,-13,12,-16,34,-13,73,31.7,31.59,1018.14,1,0
2022-11-02 15:14:24,1143,29,-42,-55,0,22,36,-13,72,31.7,31.59,1018.14,1,0
2022-11-02 15:14:24,1143,29,-42,-55,0,22,36,-13,72,31.7,31.59,1018.14,1,0
2022-11-02 15:14:24,913,-138,-105,-16,-6,4,37,-10,72,31.7,31.59,1018.14,1,0
2022-11-02 15:14:24,913,-138,-105,-16,-6,4,37,-10,72,31.7,31.59,1018.14,1,0
2022-11-02 15:14:24,806,-7,-189,-37,-8,3,38,-15,66,31.7,31.59,1018.14,1,0
2022-11-02 15:14:24,806,-7,-189,-37,-8,3,38,-15,66,31.7,31.59,1018.14,1,0
2022-11-02 15:14:24,1190,-35,-15,-34,12,-3,35,-16,66,31.7,31.59,1018.16,1,0
2022-11-02 15:14:24,1190,-35,-15,-34,12,-3,35,-16,66,31.7,31.59,1018.16,1,0
2022-11-02 15:14:24,1229,-310,23,-41,2,4,34,-15,61,31.7,31.59,1018.16,1,0
2022-11-02 15:14:24,1229,-310,23,-41,2,4,34,-15,61,31.7,31.59,1018.16,1,0
2022-11-02 15:14:24,1026,-113,177,-75,17,4,34,-14,60,31.7,31.59,1018.16,1,0
2022-11-02 15:14:24,1026,-113,177,-75,17,4,34,-14,60,31.7,31.59,1018.16,1,0
2022-11-02 15:14:24,952,-81,218,-133,14,-8,35,-11,61,31.7,31.59,1018.16,1,0
2022-11-02 15:14:24,952,-81,218,-133,14,-8,35,-11,61,31.7,31.59,1018.16,1,0
2022-11-02 15:14:24,1063,-64,156,-148,0,7,34,-16,48,31.7,31.59,1018.16,1,0
2022-11-02 15:14:24,1063,-64,156,-148,0,7,34,-16,48,31.7,31.59,1018.16,1,0
2022-11-02 15:14:25,917,-87,113,-149,6,15,34,-13,49,31.7,31.59,1018.16,1,0
2022-11-02 15:14:25,917,-87,113,-149,6,15,34,-13,49,31.7,31.59,1018.16,1,0
2022-11-02 15:14:25,1175,-25,39,-128,44,8,33,-14,38,31.7,31.59,1018.16,1,0
2022-11-02 15:14:25,1175,-25,39,-128,44,8,33,-14,38,31.7,31.59,1018.16,1,0
2022-11-02 15:14:25,886,-111,-48,-106,7,5,35,-11,34,31.7,31.59,1018.16,1,0
2022-11-02 15:14:25,886,-111,-48,-106,7,5,35,-11,34,31.7,31.59,1018.16,1,0
2022-11-02 15:14:25,987,-87,-87,-106,5,-11,35,-9,29,31.7,31.59,1018.16,1,0
2022-11-02 15:14:25,987,-87,-87,-106,5,-11,35,-9,29,31.7,31.59,1018.16,1,0
2022-11-02 15:14:25,989,-76,-89,-103,1,-19,35,-5,31,31.7,31.59,1018.16,1,0
2022-11-02 15:14:25,989,-76,-89,-103,1,-19,35,-5,31,31.7,31.59,1018.16,1,0
2022-11-02 15:14:25,1061,-95,-240,-73,-7,-1,33,0,30,31.7,31.61,1018.17,1,0
2022-11-02 15:14:25,1061,-95,-240,-73,-7,-1,33,0,30,31.7,31.61,1018.17,1,0
2022-11-02 15:14:25,1206,-374,1,-90,5,14,35,5,22,31.7,31.61,1018.17,1,0
2022-11-02 15:14:25,1206,-374,1,-90,5,14,35,5,22,31.7,31.61,1018.17,1,0
2022-11-02 15:14:25,1073,33,80,-77,6,-3,34,5,24,31.7,31.61,1018.17,1,0
2022-11-02 15:14:25,1073,33,80,-77,6,-3,34,5,24,31.7,31.61,1018.17,1,0
2022-11-02 15:14:25,839,13,171,-91,19,-6,36,12,20,31.7,31.61,1018.17,1,0
2022-11-02 15:14:25,839,13,171,-91,19,-6,36,12,20,31.7,31.61,1018.17,1,0
2022-11-02 15:14:25,950,169,35,-62,13,-6,35,16,18,31.7,31.61,1018.17,1,0
2022-11-02 15:14:25,950,169,35,-62,13,-6,35,16,18,31.7,31.61,1018.17,1,0
2022-11-02 15:14:26,1022,242,-64,-38,-1,-7,37,20,21,31.7,31.61,1018.17,1,0
2022-11-02 15:14:26,1022,242,-64,-38,-1,-7,37,20,21,31.7,31.61,1018.17,1,0
2022-11-02 15:14:26,917,105,-62,-20,0,12,39,24,26,31.7,31.61,1018.17,1,0
2022-11-02 15:14:26,917,105,-62,-20,0,12,39,24,26,31.7,31.61,1018.17,1,0
2022-11-02 15:14:26,1225,181,-68,-32,-16,-1,37,26,22,31.7,31.61,1018.17,1,0
2022-11-02 15:14:26,1225,181,-68,-32,-16,-1,37,26,22,31.7,31.61,1018.17,1,0
2022-11-02 15:14:26,946,-162,361,6,-3,-4,41,25,20,31.7,31.61,1018.17,1,0
2022-11-02 15:14:26,946,-162,361,6,-3,-4,41,25,20,31.7,31.61,1018.17,1,0
2022-11-02 15:14:26,1081,179,-13,34,-8,12,39,24,21,31.7,31.61,1018.17,1,0
2022-11-02 15:14:26,1081,179,-13,34,-8,12,39,24,21,31.7,31.61,1018.17,1,0
2022-11-02 15:14:26,958,-64,-46,94,-16,-3,37,23,18,31.7,31.61,1018.08,1,0
2022-11-02 15:14:26,958,-64,-46,94,-16,-3,37,23,18,31.7,31.61,1018.08,1,0
2022-11-02 15:14:26,882,15,-91,80,-6,-2,37,17,12,31.7,31.61,1018.08,1,0
2022-11-02 15:14:26,882,15,-91,80,-6,-2,37,17,12,31.7,31.61,1018.08,1,0
2022-11-02 15:14:26,1147,-130,-15,48,8,2,35,14,7,31.7,31.61,1018.08,1,0
2022-11-02 15:14:26,1147,-130,-15,48,8,2,35,14,7,31.7,31.61,1018.08,1,0
2022-11-02 15:14:26,1382,269,-23,62,-6,0,37,9,9,31.7,31.61,1018.08,1,0
2022-11-02 15:14:26,1382,269,-23,62,-6,0,37,9,9,31.7,31.61,1018.08,1,0
2022-11-02 15:14:26,628,162,87,75,10,-10,32,7,2,31.7,31.61,1018.08,1,0
2022-11-02 15:14:26,628,162,87,75,10,-10,32,7,2,31.7,31.61,1018.08,1,0
2022-11-02 15:14:27,1079,-124,0,63,8,-10,33,0,2,31.7,31.61,1018.08,1,0
2022-11-02 15:14:27,1079,-124,0,63,8,-10,33,0,2,31.7,31.61,1018.08,1,0
2022-11-02 15:14:27,874,152,9,48,11,-15,34,-4,9,31.7,31.61,1018.08,1,0
2022-11-02 15:14:27,874,152,9,48,11,-15,34,-4,9,31.7,31.61,1018.08,1,0
2022-11-02 15:14:27,987,122,33,20,17,6,37,-7,3,31.7,31.61,1018.08,1,0
2022-11-02 15:14:27,987,122,33,20,17,6,37,-7,3,31.7,31.61,1018.08,1,0
2022-11-02 15:14:27,1221,327,27,23,-3,-7,36,-10,6,31.7,31.61,1018.08,1,0
2022-11-02 15:14:27,1221,327,27,23,-3,-7,36,-10,6,31.7,31.61,1018.08,1,0
2022-11-02 15:14:27,974,-109,306,33,-6,-16,36,-9,5,31.7,31.61,1018.08,1,0
2022-11-02 15:14:27,974,-109,306,33,-6,-16,36,-9,5,31.7,31.61,1018.08,1,0
2022-11-02 15:14:27,1100,81,-31,42,-16,11,35,-13,11,31.7,31.63,1018.11,1,0
2022-11-02 15:14:27,1100,81,-31,42,-16,11,35,-13,11,31.7,31.63,1018.11,1,0
2022-11-02 15:14:27,878,-37,-70,80,-21,0,33,-16,4,31.7,31.63,1018.11,1,0
2022-11-02 15:14:27,878,-37,-70,80,-21,0,33,-16,4,31.7,31.63,1018.11,1,0
2022-11-02 15:14:27,817,-54,-148,55,-10,0,34,-19,11,31.7,31.63,1018.11,1,0
2022-11-02 15:14:27,817,-54,-148,55,-10,0,34,-19,11,31.7,31.63,1018.11,1,0
2022-11-02 15:14:27,1143,-76,-87,43,6,-1,32,-26,13,31.7,31.63,1018.11,1,0
2022-11-02 15:14:27,1143,-76,-87,43,6,-1,32,-26,13,31.7,31.63,1018.11,1,0
2022-11-02 15:14:27,1389,40,-3,28,-11,8,29,-30,16,31.7,31.63,1018.11,1,0
2022-11-02 15:14:27,1389,40,-3,28,-11,8,29,-30,16,31.7,31.63,1018.11,1,0
2022-11-02 15:14:28,675,236,130,15,6,-3,29,-31,15,31.7,31.63,1018.11,1,0
2022-11-02 15:14:28,675,236,130,15,6,-3,29,-31,15,31.7,31.63,1018.11,1,0
2022-11-02 15:14:28,1069,-162,23,-3,23,-11,31,-33,18,31.7,31.63,1018.11,1,0
2022-11-02 15:14:28,1069,-162,23,-3,23,-11,31,-33,18,31.7,31.63,1018.11,1,0
2022-11-02 15:14:28,874,255,-37,-17,13,-8,29,-34,19,31.7,31.63,1018.11,1,0
2022-11-02 15:14:28,874,255,-37,-17,13,-8,29,-34,19,31.7,31.63,1018.11,1,0
2022-11-02 15:14:28,997,109,11,-9,14,3,31,-29,15,31.7,31.63,1018.11,1,0
2022-11-02 15:14:28,997,109,11,-9,14,3,31,-29,15,31.7,31.63,1018.11,1,0
2022-11-02 15:14:28,1208,286,-25,-13,7,-19,31,-30,25,31.7,31.63,1018.11,1,0
2022-11-02 15:14:28,1208,286,-25,-13,7,-19,31,-30,25,31.7,31.63,1018.11,1,0
2022-11-02 15:14:28,970,-162,140,17,8,-26,33,-29,17,31.7,31.62,1018.15,1,0
2022-11-02 15:14:28,970,-162,140,17,8,-26,33,-29,17,31.7,31.62,1018.15,1,0
2022-11-02 15:14:28,1061,-48,-40,-33,-7,27,36,-30,19,31.7,31.62,1018.15,1,0
2022-11-02 15:14:28,1061,-48,-40,-33,-7,27,36,-30,19,31.7,31.62,1018.15,1,0
2022-11-02 15:14:28,806,-33,-150,3,-3,0,35,-24,14,31.7,31.62,1018.15,1,0
2022-11-02 15:14:28,806,-33,-150,3,-3,0,35,-24,14,31.7,31.62,1018.15,1,0
2022-11-02 15:14:28,905,-50,-199,-17,-5,-6,35,-23,14,31.7,31.62,1018.15,1,0
2022-11-02 15:14:28,905,-50,-199,-17,-5,-6,35,-23,14,31.7,31.62,1018.15,1,0
2022-11-02 15:14:28,1278,-52,-80,-18,5,-2,33,-25,12,31.7,31.62,1018.15,1,0
2022-11-02 15:14:28,1278,-52,-80,-18,5,-2,33,-25,12,31.7,31.62,1018.15,1,0
2022-11-02 15:14:29,1118,-491,74,-61,14,11,36,-19,16,31.7,31.62,1018.15,1,0
2022-11-02 15:14:29,1118,-491,74,-61,14,11,36,-19,16,31.7,31.62,1018.15,1,0
2022-11-02 15:14:29,1022,35,162,-91,10,1,31,-19,12,31.7,31.62,1018.15,1,0
2022-11-02 15:14:29,1022,35,162,-91,10,1,31,-19,12,31.7,31.62,1018.15,1,0
2022-11-02 15:14:29,987,93,93,-124,-10,-17,31,-12,13,31.7,31.62,1018.15,1,0
2022-11-02 15:14:29,987,93,93,-124,-10,-17,31,-12,13,31.7,31.62,1018.15,1,0
2022-11-02 15:14:29,964,156,-39,-101,-6,6,32,-4,3,31.7,31.62,1018.15,1,0
2022-11-02 15:14:29,964,156,-39,-101,-6,6,32,-4,3,31.7,31.62,1018.15,1,0
2022-11-02 15:14:29,940,165,-103,-66,-9,20,30,5,3,31.7,31.62,1018.15,1,0
2022-11-02 15:14:29,940,165,-103,-66,-9,20,30,5,3,31.7,31.62,1018.15,1,0
2022-11-02 15:14:29,1153,-103,-37,-42,6,-2,30,11,4,31.7,31.63,1018.1,1,0
2022-11-02 15:14:29,1153,-103,-37,-42,6,-2,30,11,4,31.7,31.63,1018.1,1,0
2022-11-02 15:14:29,890,-162,11,-63,13,-2,27,11,4,31.7,31.63,1018.1,1,0
2022-11-02 15:14:29,890,-162,11,-63,13,-2,27,11,4,31.7,31.63,1018.1,1,0
2022-11-02 15:14:29,1106,78,-35,-28,16,27,30,15,6,31.7,31.63,1018.1,1,0
2022-11-02 15:14:29,1106,78,-35,-28,16,27,30,15,6,31.7,31.63,1018.1,1,0
2022-11-02 15:14:29,909,-171,-78,-24,15,16,30,18,10,31.7,31.63,1018.1,1,0
2022-11-02 15:14:29,909,-171,-78,-24,15,16,30,18,10,31.7,31.63,1018.1,1,0
2022-11-02 15:14:29,964,9,-119,-23,7,-7,31,20,8,31.7,31.63,1018.1,1,0
2022-11-02 15:14:29,964,9,-119,-23,7,-7,31,20,8,31.7,31.63,1018.1,1,0
2022-11-02 15:14:30,1372,-236,142,-24,11,21,32,20,6,31.7,31.63,1018.1,1,0
2022-11-02 15:14:30,1372,-236,142,-24,11,21,32,20,6,31.7,31.63,1018.1,1,0
2022-11-02 15:14:30,704,68,160,-33,1,-20,35,23,8,31.7,31.63,1018.1,1,0
2022-11-02 15:14:30,704,68,160,-33,1,-20,35,23,8,31.7,31.63,1018.1,1,0
2022-11-02 15:14:30,1118,-33,199,-39,10,-3,34,26,11,31.7,31.63,1018.1,1,0
2022-11-02 15:14:30,1118,-33,199,-39,10,-3,34,26,11,31.7,31.63,1018.1,1,0
2022-11-02 15:14:30,964,33,113,-22,3,0,32,30,10,31.7,31.63,1018.1,1,0
2022-11-02 15:14:30,964,33,113,-22,3,0,32,30,10,31.7,31.63,1018.1,1,0
2022-11-02 15:14:30,972,37,87,-17,-3,7,34,34,11,31.7,31.63,1018.1,1,0
2022-11-02 15:14:30,972,37,87,-17,-3,7,34,34,11,31.7,31.63,1018.1,1,0
2022-11-02 15:14:30,970,35,25,-18,-18,1,33,33,13,31.7,31.64,1018.17,1,0
2022-11-02 15:14:30,970,35,25,-18,-18,1,33,33,13,31.7,31.64,1018.17,1,0
2022-11-02 15:14:30,1337,-109,341,-18,14,3,34,37,11,31.7,31.64,1018.17,1,0
2022-11-02 15:14:30,1337,-109,341,-18,14,3,34,37,11,31.7,31.64,1018.17,1,0
2022-11-02 15:14:30,780,-162,-15,-9,-17,10,36,39,11,31.7,31.64,1018.17,1,0
2022-11-02 15:14:30,780,-162,-15,-9,-17,10,36,39,11,31.7,31.64,1018.17,1,0
2022-11-02 15:14:30,1030,-160,124,7,3,5,34,40,13,31.7,31.64,1018.17,1,0
2022-11-02 15:14:30,1030,-160,124,7,3,5,34,40,13,31.7,31.64,1018.17,1,0
2022-11-02 15:14:30,921,-232,35,-23,7,15,33,40,10,31.7,31.64,1018.17,1,0
2022-11-02 15:14:30,921,-232,35,-23,7,15,33,40,10,31.7,31.64,1018.17,1,0
2022-11-02 15:14:31,1018,-193,91,-21,7,-11,33,38,7,31.7,31.64,1018.17,1,0
2022-11-02 15:14:31,1018,-193,91,-21,7,-11,33,38,7,31.7,31.64,1018.17,1,0
2022-11-02 15:14:31,970,-148,37,-25,-12,-19,34,43,9,31.7,31.64,1018.17,1,0
2022-11-02 15:14:31,970,-148,37,-25,-12,-19,34,43,9,31.7,31.64,1018.17,1,0
2022-11-02 15:14:31,1262,-685,306,-34,12,-3,34,46,18,31.7,31.64,1018.17,1,0
2022-11-02 15:14:31,1262,-685,306,-34,12,-3,34,46,18,31.7,31.64,1018.17,1,0
2022-11-02 15:14:31,1120,-154,142,-100,-11,-27,33,50,15,31.7,31.64,1018.17,1,0
2022-11-02 15:14:31,1120,-154,142,-100,-11,-27,33,50,15,31.7,31.64,1018.17,1,0
2022-11-02 15:14:31,901,-72,124,-119,2,-23,31,56,18,31.7,31.64,1018.17,1,0
2022-11-02 15:14:31,901,-72,124,-119,2,-23,31,56,18,31.7,31.64,1018.17,1,0
2022-11-02 15:14:31,936,93,9,-150,-9,-14,30,60,24,31.7,31.64,1018.17,1,0
2022-11-02 15:14:31,936,93,9,-150,-9,-14,30,60,24,31.7,31.64,1018.17,1,0
2022-11-02 15:14:31,976,99,-46,-128,-6,-17,28,64,39,31.7,31.64,1018.17,1,0
2022-11-02 15:14:31,976,99,-46,-128,-6,-17,28,64,39,31.7,31.64,1018.17,1,0
2022-11-02 15:14:31,954,97,-80,-114,-13,-1,25,69,53,31.7,31.64,1018.17,1,0
2022-11-02 15:14:31,954,97,-80,-114,-13,-1,25,69,53,31.7,31.64,1018.17,1,0
2022-11-02 15:14:31,1292,-283,187,-100,33,16,25,65,61,31.7,31.64,1018.17,1,0
2022-11-02 15:14:31,1292,-283,187,-100,33,16,25,65,61,31.7,31.64,1018.17,1,0
2022-11-02 15:14:31,1007,-103,76,-129,5,4,25,63,76,31.7,31.64,1018.17,1,0
2022-11-02 15:14:31,1007,-103,76,-129,5,4,25,63,76,31.7,31.64,1018.17,1,0
2022-11-02 15:14:32,1040,29,-25,-114,-7,0,26,57,83,31.7,31.64,1018.17,1,0
2022-11-02 15:14:32,1040,29,-25,-114,-7,0,26,57,83,31.7,31.64,1018.17,1,0
2022-11-02 15:14:32,925,-19,-203,-88,-12,12,27,51,91,31.7,31.64,1018.17,1,0
2022-11-02 15:14:32,925,-19,-203,-88,-12,12,27,51,91,31.7,31.64,1018.17,1,0
2022-11-02 15:14:32,989,-44,-277,-69,3,14,27,42,92,31.7,31.64,1018.17,1,0
2022-11-02 15:14:32,989,-44,-277,-69,3,14,27,42,92,31.7,31.64,1018.17,1,0
2022-11-02 15:14:32,1464,-167,-27,-65,-5,33,29,34,99,31.7,31.64,1018.17,1,0
2022-11-02 15:14:32,1464,-167,-27,-65,-5,33,29,34,99,31.7,31.64,1018.17,1,0
2022-11-02 15:14:32,901,136,171,-22,14,-21,30,27,97,31.7,31.64,1018.17,1,0
2022-11-02 15:14:32,901,136,171,-22,14,-21,30,27,97,31.7,31.64,1018.17,1,0
2022-11-02 15:14:32,1040,17,-27,-61,1,-11,32,23,94,31.7,31.64,1018.17,1,0
2022-11-02 15:14:32,1040,17,-27,-61,1,-11,32,23,94,31.7,31.64,1018.17,1,0
2022-11-02 15:14:32,841,40,9,-36,16,-7,31,23,96,31.7,31.64,1018.17,1,0
2022-11-02 15:14:32,841,40,9,-36,16,-7,31,23,96,31.7,31.64,1018.17,1,0
2022-11-02 15:14:32,936,130,13,-42,13,7,27,20,100,31.7,31.64,1018.17,1,0
2022-11-02 15:14:32,936,130,13,-42,13,7,27,20,100,31.7,31.64,1018.17,1,0
2022-11-02 15:14:32,1057,179,-85,-28,-4,14,27,17,104,31.7,31.64,1018.17,1,0
2022-11-02 15:14:32,1057,179,-85,-28,-4,14,27,17,104,31.7,31.64,1018.17,1,0
2022-11-02 15:14:32,1342,163,-15,-15,-1,-14,27,11,102,31.7,31.64,1018.17,1,0
2022-11-02 15:14:32,1342,163,-15,-15,-1,-14,27,11,102,31.7,31.64,1018.17,1,0
2022-11-02 15:14:33,778,-271,-21,31,-10,-14,27,8,102,31.7,31.64,1018.17,1,0
2022-11-02 15:14:33,778,-271,-21,31,-10,-14,27,8,102,31.7,31.64,1018.17,1,0
2022-11-02 15:14:33,1214,169,29,46,-10,2,29,14,102,31.7,31.64,1018.17,1,0
2022-11-02 15:14:33,1214,169,29,46,-10,2,29,14,102,31.7,31.64,1018.17,1,0
2022-11-02 15:14:33,741,-60,-56,69,-10,11,29,14,102,31.7,31.64,1018.17,1,0
2022-11-02 15:14:33,741,-60,-56,69,-10,11,29,14,102,31.7,31.64,1018.17,1,0
2022-11-02 15:14:33,876,-17,-191,59,-9,-8,32,20,97,31.7,31.64,1018.17,1,0
2022-11-02 15:14:33,876,-17,-191,59,-9,-8,32,20,97,31.7,31.64,1018.17,1,0
2022-11-02 15:14:33,1210,39,-220,21,-17,9,34,25,97,31.7,31.64,1018.17,1,0
2022-11-02 15:14:33,1210,39,-220,21,-17,9,34,25,97,31.7,31.64,1018.17,1,0
2022-11-02 15:14:33,962,-325,122,11,-5,10,35,29,92,31.7,31.64,1018.17,1,0
2022-11-02 15:14:33,962,-325,122,11,-5,10,35,29,92,31.7,31.64,1018.17,1,0
2022-11-02 15:14:33,960,13,91,34,18,-3,36,30,94,31.7,31.73,1018.17,1,0
2022-11-02 15:14:33,960,13,91,34,18,-3,36,30,94,31.7,31.73,1018.17,1,0
2022-11-02 15:14:33,925,115,60,-3,18,-18,37,34,92,31.7,31.73,1018.17,1,0
2022-11-02 15:14:33,925,115,60,-3,18,-18,37,34,92,31.7,31.73,1018.17,1,0
2022-11-02 15:14:33,933,134,-31,-5,19,1,36,34,94,31.7,31.73,1018.17,1,0
2022-11-02 15:14:33,933,134,-31,-5,19,1,36,34,94,31.7,31.73,1018.17,1,0
2022-11-02 15:14:33,1151,111,13,-23,1,5,36,35,96,31.7,31.73,1018.17,1,0
2022-11-02 15:14:33,1151,111,13,-23,1,5,36,35,96,31.7,31.73,1018.17,1,0
2022-11-02 15:14:34,1421,76,242,2,-1,-20,35,35,94,31.7,31.73,1018.17,1,0
2022-11-02 15:14:34,1421,76,242,2,-1,-20,35,35,94,31.7,31.73,1018.17,1,0
2022-11-02 15:14:34,923,-76,-50,21,-17,-2,35,30,98,31.7,31.73,1018.17,1,0
2022-11-02 15:14:34,923,-76,-50,21,-17,-2,35,30,98,31.7,31.73,1018.17,1,0
2022-11-02 15:14:34,929,19,-52,56,-22,0,39,34,93,31.7,31.73,1018.17,1,0
2022-11-02 15:14:34,929,19,-52,56,-22,0,39,34,93,31.7,31.73,1018.17,1,0
2022-11-02 15:14:34,839,-33,-146,32,-10,6,40,33,82,31.7,31.73,1018.17,1,0
2022-11-02 15:14:34,839,-33,-146,32,-10,6,40,33,82,31.7,31.73,1018.17,1,0
2022-11-02 15:14:34,1104,-74,-111,22,7,-5,42,35,82,31.7,31.73,1018.17,1,0
2022-11-02 15:14:34,1104,-74,-111,22,7,-5,42,35,82,31.7,31.73,1018.17,1,0
2022-11-02 15:14:34,1452,3,-60,0,-26,15,43,40,82,31.7,31.73,1018.17,1,0
2022-11-02 15:14:34,1452,3,-60,0,-26,15,43,40,82,31.7,31.73,1018.17,1,0
2022-11-02 15:14:34,653,37,109,-25,6,-1,44,37,79,31.7,31.06,1018.17,1,0
2022-11-02 15:14:34,653,37,109,-25,6,-1,44,37,79,31.7,31.06,1018.17,1,0
2022-11-02 15:14:34,1054,-242,7,-54,18,-7,45,34,79,31.7,31.06,1018.17,1,0
2022-11-02 15:14:34,1054,-242,7,-54,18,-7,45,34,79,31.7,31.06,1018.17,1,0
2022-11-02 15:14:34,886,238,-62,-73,7,-9,43,33,81,31.7,31.06,1018.17,1,0
2022-11-02 15:14:34,886,238,-62,-73,7,-9,43,33,81,31.7,31.06,1018.17,1,0
2022-11-02 15:14:34,905,171,-85,-46,12,11,42,28,84,31.7,31.06,1018.17,1,0
2022-11-02 15:14:34,905,171,-85,-46,12,11,42,28,84,31.7,31.06,1018.17,1,0
2022-11-02 15:14:35,1132,169,-81,-19,10,-11,41,27,84,31.7,31.06,1018.17,1,0
2022-11-02 15:14:35,1132,169,-81,-19,10,-11,41,27,84,31.7,31.06,1018.17,1,0
2022-11-02 15:14:35,1301,-124,331,-39,22,-17,39,27,87,31.7,31.06,1018.17,1,0
2022-11-02 15:14:35,1301,-124,331,-39,22,-17,39,27,87,31.7,31.06,1018.17,1,0
2022-11-02 15:14:35,1065,97,-13,-60,-5,24,38,22,86,31.7,31.06,1018.17,1,0
2022-11-02 15:14:35,1065,97,-13,-60,-5,24,38,22,86,31.7,31.06,1018.17,1,0
2022-11-02 15:14:35,837,3,-163,12,-16,-2,39,18,83,31.7,31.06,1018.17,1,0
2022-11-02 15:14:35,837,3,-163,12,-16,-2,39,18,83,31.7,31.06,1018.17,1,0
2022-11-02 15:14:35,905,-40,-187,-12,-3,1,39,17,83,31.7,31.06,1018.17,1,0
2022-11-02 15:14:35,905,-40,-187,-12,-3,1,39,17,83,31.7,31.06,1018.17,1,0
2022-11-02 15:14:35,1159,-74,-76,-20,4,-2,36,13,84,31.7,31.06,1018.17,1,0
2022-11-02 15:14:35,1159,-74,-76,-20,4,-2,36,13,84,31.7,31.06,1018.17,1,0
2022-11-02 15:14:35,1245,-195,74,-38,-2,6,41,16,81,31.7,31.67,1018.2,1,0
2022-11-02 15:14:35,1245,-195,74,-38,-2,6,41,16,81,31.7,31.67,1018.2,1,0
2022-11-02 15:14:35,958,-150,212,-88,2,0,37,13,81,31.7,31.67,1018.2,1,0
2022-11-02 15:14:35,958,-150,212,-88,2,0,37,13,81,31.7,31.67,1018.2,1,0
2022-11-02 15:14:35,964,-76,224,-159,0,2,35,9,81,31.7,31.67,1018.2,1,0
2022-11-02 15:14:35,964,-76,224,-159,0,2,35,9,81,31.7,31.67,1018.2,1,0
2022-11-02 15:14:35,1028,29,122,-160,4,18,33,2,75,31.7,31.67,1018.2,1,0
2022-11-02 15:14:35,1028,29,122,-160,4,18,33,2,75,31.7,31.67,1018.2,1,0
2022-11-02 15:14:36,903,39,150,-162,-8,28,33,-6,75,31.7,31.67,1018.2,1,0
2022-11-02 15:14:36,903,39,150,-162,-8,28,33,-6,75,31.7,31.67,1018.2,1,0
2022-11-02 15:14:36,892,-193,52,-149,19,20,32,-11,64,31.7,31.67,1018.2,1,0
2022-11-02 15:14:36,892,-193,52,-149,19,20,32,-11,64,31.7,31.67,1018.2,1,0
2022-11-02 15:14:36,1294,-148,117,-137,42,12,33,-16,58,31.7,31.67,1018.2,1,0
2022-11-02 15:14:36,1294,-148,117,-137,42,12,33,-16,58,31.7,31.67,1018.2,1,0
2022-11-02 15:14:36,839,-165,-97,-135,8,5,31,-20,52,31.7,31.67,1018.2,1,0
2022-11-02 15:14:36,839,-165,-97,-135,8,5,31,-20,52,31.7,31.67,1018.2,1,0
2022-11-02 15:14:36,938,-152,-74,-137,12,-16,31,-22,43,31.7,31.67,1018.2,1,0
2022-11-02 15:14:36,938,-152,-74,-137,12,-16,31,-22,43,31.7,31.67,1018.2,1,0
2022-11-02 15:14:36,1067,-206,-179,-105,9,-17,33,-20,40,31.7,31.67,1018.2,1,0
2022-11-02 15:14:36,1067,-206,-179,-105,9,-17,33,-20,40,31.7,31.67,1018.2,1,0
2022-11-02 15:14:36,1171,-261,-11,-114,6,12,32,-14,34,31.7,31.68,1018.17,1,0
2022-11-02 15:14:36,1171,-261,-11,-114,6,12,32,-14,34,31.7,31.68,1018.17,1,0
2022-11-02 15:14:36,1052,115,162,-109,8,-2,35,-14,31,31.7,31.68,1018.17,1,0
2022-11-02 15:14:36,1052,115,162,-109,8,-2,35,-14,31,31.7,31.68,1018.17,1,0
2022-11-02 15:14:36,1040,-31,162,-135,21,-15,33,-9,24,31.7,31.68,1018.17,1,0
2022-11-02 15:14:36,1040,-31,162,-135,21,-15,33,-9,24,31.7,31.68,1018.17,1,0
2022-11-02 15:14:36,911,181,52,-116,13,-14,35,-3,20,31.7,31.68,1018.17,1,0
2022-11-02 15:14:36,911,181,52,-116,13,-14,35,-3,20,31.7,31.68,1018.17,1,0
2022-11-02 15:14:37,1036,138,-27,-106,7,-1,36,2,16,31.7,31.68,1018.17,1,0
2022-11-02 15:14:37,1036,138,-27,-106,7,-1,36,2,16,31.7,31.68,1018.17,1,0
2022-11-02 15:14:37,960,195,-70,-74,-3,-3,36,9,15,31.7,31.68,1018.17,1,0
2022-11-02 15:14:37,960,195,-70,-74,-3,-3,36,9,15,31.7,31.68,1018.17,1,0
2022-11-02 15:14:37,1241,27,-109,-68,-10,-13,34,16,19,31.7,31.68,1018.17,1,0
2022-11-02 15:14:37,1241,27,-109,-68,-10,-13,34,16,19,31.7,31.68,1018.17,1,0
2022-11-02 15:14:37,720,-226,142,-65,8,-9,39,19,13,31.7,31.68,1018.17,1,0
2022-11-02 15:14:37,720,-226,142,-65,8,-9,39,19,13,31.7,31.68,1018.17,1,0
2022-11-02 15:14:37,1218,160,31,-62,0,19,36,22,15,31.7,31.68,1018.17,1,0
2022-11-02 15:14:37,1218,160,31,-62,0,19,36,22,15,31.7,31.68,1018.17,1,0
2022-11-02 15:14:37,868,-99,-130,-19,-15,7,36,26,14,31.7,31.68,1018.17,1,0
2022-11-02 15:14:37,868,-99,-130,-19,-15,7,36,26,14,31.7,31.68,1018.17,1,0
2022-11-02 15:14:37,903,74,-263,-13,-4,5,35,28,16,31.7,31.68,1018.14,1,0
2022-11-02 15:14:37,903,74,-263,-13,-4,5,35,28,16,31.7,31.68,1018.14,1,0
2022-11-02 15:14:37,1218,-208,-206,0,-4,4,32,31,17,31.7,31.68,1018.14,1,0
2022-11-02 15:14:37,1218,-208,-206,0,-4,4,32,31,17,31.7,31.68,1018.14,1,0
2022-11-02 15:14:37,1157,-310,99,-20,1,9,33,30,14,31.7,31.68,1018.14,1,0
2022-11-02 15:14:37,1157,-310,99,-20,1,9,33,30,14,31.7,31.68,1018.14,1,0
2022-11-02 15:14:37,954,130,156,-13,6,-6,34,32,6,31.7,31.68,1018.14,1,0
2022-11-02 15:14:37,954,130,156,-13,6,-6,34,32,6,31.7,31.68,1018.14,1,0
2022-11-02 15:14:38,942,70,3,-54,9,-19,30,37,6,31.7,31.68,1018.14,1,0
2022-11-02 15:14:38,942,70,3,-54,9,-19,30,37,6,31.7,31.68,1018.14,1,0
2022-11-02 15:14:38,921,138,-105,-22,14,-1,28,42,9,31.7,31.68,1018.14,1,0
2022-11-02 15:14:38,921,138,-105,-22,14,-1,28,42,9,31.7,31.68,1018.14,1,0
2022-11-02 15:14:38,995,78,-27,-22,2,9,27,43,13,31.7,31.68,1018.14,1,0
2022-11-02 15:14:38,995,78,-27,-22,2,9,27,43,13,31.7,31.68,1018.14,1,0
2022-11-02 15:14:38,1452,97,-70,-19,-6,-18,26,47,14,31.7,31.68,1018.14,1,0
2022-11-02 15:14:38,1452,97,-70,-19,-6,-18,26,47,14,31.7,31.68,1018.14,1,0
2022-11-02 15:14:38,782,-193,-37,13,-11,-15,23,49,14,31.7,31.68,1018.14,1,0
2022-11-02 15:14:38,782,-193,-37,13,-11,-15,23,49,14,31.7,31.68,1018.14,1,0
2022-11-02 15:14:38,1124,130,5,12,-15,7,20,51,16,31.7,31.68,1018.14,1,0
2022-11-02 15:14:38,1124,130,5,12,-15,7,20,51,16,31.7,31.68,1018.14,1,0
2022-11-02 15:14:38,851,3,-193,32,-14,2,18,48,15,31.7,31.7,1018.13,1,0
2022-11-02 15:14:38,851,3,-193,32,-14,2,18,48,15,31.7,31.7,1018.13,1,0
2022-11-02 15:14:38,841,42,-128,43,0,-4,12,47,11,31.7,31.7,1018.13,1,0
2022-11-02 15:14:38,841,42,-128,43,0,-4,12,47,11,31.7,31.7,1018.13,1,0
2022-11-02 15:14:38,1122,-3,-376,3,-15,6,12,43,12,31.7,31.7,1018.13,1,0
2022-11-02 15:14:38,1122,-3,-376,3,-15,6,12,43,12,31.7,31.7,1018.13,1,0
2022-11-02 15:14:38,1325,-269,121,11,-1,17,10,45,3,31.7,31.7,1018.13,1,0
2022-11-02 15:14:38,1325,-269,121,11,-1,17,10,45,3,31.7,31.7,1018.13,1,0
2022-11-02 15:14:39,892,66,11,1,15,0,11,40,4,31.7,31.7,1018.13,1,0
2022-11-02 15:14:39,892,66,11,1,15,0,11,40,4,31.7,31.7,1018.13,1,0
2022-11-02 15:14:39,919,169,23,-46,19,-14,11,44,4,31.7,31.7,1018.13,1,0
2022-11-02 15:14:39,919,169,23,-46,19,-14,11,44,4,31.7,31.7,1018.13,1,0
2022-11-02 15:14:39,956,173,-91,-19,16,8,12,45,13,31.7,31.7,1018.13,1,0
2022-11-02 15:14:39,956,173,-91,-19,16,8,12,45,13,31.7,31.7,1018.13,1,0
2022-11-02 15:14:39,1030,72,-27,-17,2,19,10,47,16,31.7,31.7,1018.13,1,0
2022-11-02 15:14:39,1030,72,-27,-17,2,19,10,47,16,31.7,31.7,1018.13,1,0
2022-11-02 15:14:39,1532,130,-81,8,0,-20,13,45,12,31.7,31.7,1018.13,1,0
2022-11-02 15:14:39,1532,130,-81,8,0,-20,13,45,12,31.7,31.7,1018.13,1,0
2022-11-02 15:14:39,644,-240,-21,34,-18,-7,12,46,16,31.7,31.7,1018.13,1,0
2022-11-02 15:14:39,644,-240,-21,34,-18,-7,12,46,16,31.7,31.7,1018.13,1,0
2022-11-02 15:14:39,1095,52,76,54,-3,4,12,47,15,31.7,31.72,1018.13,1,0
2022-11-02 15:14:39,1095,52,76,54,-3,4,12,47,15,31.7,31.72,1018.13,1,0
2022-11-02 15:14:39,792,-167,-95,43,-13,6,11,43,13,31.7,31.72,1018.13,1,0
2022-11-02 15:14:39,792,-167,-95,43,-13,6,11,43,13,31.7,31.72,1018.13,1,0
2022-11-02 15:14:39,886,11,-152,26,3,-8,7,38,7,31.7,31.72,1018.13,1,0
2022-11-02 15:14:39,886,11,-152,26,3,-8,7,38,7,31.7,31.72,1018.13,1,0
2022-11-02 15:14:39,1120,-1,-214,18,-16,4,7,38,13,31.7,31.72,1018.13,1,0
2022-11-02 15:14:39,1120,-1,-214,18,-16,4,7,38,13,31.7,31.72,1018.13,1,0
2022-11-02 15:14:40,1034,-162,236,37,-2,10,5,35,13,31.7,31.72,1018.13,1,0
2022-11-02 15:14:40,1034,-162,236,37,-2,10,5,35,13,31.7,31.72,1018.13,1,0
2022-11-02 15:14:40,979,-117,15,26,29,2,7,33,13,31.7,31.72,1018.13,1,0
2022-11-02 15:14:40,979,-117,15,26,29,2,7,33,13,31.7,31.72,1018.13,1,0
2022-11-02 15:14:40,897,290,-9,6,2,-8,5,33,9,31.7,31.72,1018.13,1,0
2022-11-02 15:14:40,897,290,-9,6,2,-8,5,33,9,31.7,31.72,1018.13,1,0
2022-11-02 15:14:40,976,128,7,25,0,7,3,38,12,31.7,31.72,1018.13,1,0
2022-11-02 15:14:40,976,128,7,25,0,7,3,38,12,31.7,31.72,1018.13,1,0
2022-11-02 15:14:40,952,-54,-1,35,-7,6,5,35,12,31.7,31.72,1018.13,1,0
2022-11-02 15:14:40,952,-54,-1,35,-7,6,5,35,12,31.7,31.72,1018.13,1,0
2022-11-02 15:14:40,1141,122,339,50,18,-17,5,37,10,31.7,31.72,1018.13,1,0
2022-11-02 15:14:40,1141,122,339,50,18,-17,5,37,10,31.7,31.72,1018.13,1,0
2022-11-02 15:14:40,1241,242,113,109,7,9,2,40,5,31.7,31.72,1018.18,1,0
2022-11-02 15:14:40,1241,242,113,109,7,9,2,40,5,31.7,31.72,1018.18,1,0
2022-11-02 15:14:40,860,-64,46,148,-12,0,0,30,0,31.7,31.72,1018.18,1,0
2022-11-02 15:14:40,860,-64,46,148,-12,0,0,30,0,31.7,31.72,1018.18,1,0
2022-11-02 15:14:40,833,37,124,149,8,-5,1,16,-4,31.7,31.72,1018.18,1,0
2022-11-02 15:14:40,833,37,124,149,8,-5,1,16,-4,31.7,31.72,1018.18,1,0
2022-11-02 15:14:40,1206,-162,290,157,32,14,2,3,-6,31.7,31.72,1018.18,1,0
2022-11-02 15:14:40,1206,-162,290,157,32,14,2,3,-6,31.7,31.72,1018.18,1,0
2022-11-02 15:14:41,1059,191,70,119,-5,24,4,-17,1,31.7,31.72,1018.18,1,0
2022-11-02 15:14:41,1059,191,70,119,-5,24,4,-17,1,31.7,31.72,1018.18,1,0
2022-11-02 15:14:41,1122,158,331,145,0,25,4,-26,6,31.7,31.72,1018.18,1,0
2022-11-02 15:14:41,1122,158,331,145,0,25,4,-26,6,31.7,31.72,1018.18,1,0
2022-11-02 15:14:41,940,167,76,109,-22,7,3,-36,20,31.7,31.72,1018.18,1,0
2022-11-02 15:14:41,940,167,76,109,-22,7,3,-36,20,31.7,31.72,1018.18,1,0
2022-11-02 15:14:41,942,277,158,87,-11,4,3,-41,33,31.7,31.72,1018.18,1,0
2022-11-02 15:14:41,942,277,158,87,-11,4,3,-41,33,31.7,31.72,1018.18,1,0
2022-11-02 15:14:41,1044,-5,318,92,0,-5,0,-45,43,31.7,31.72,1018.18,1,0
2022-11-02 15:14:41,1044,-5,318,92,0,-5,0,-45,43,31.7,31.72,1018.18,1,0
2022-11-02 15:14:41,1237,-245,89,61,-6,7,0,-43,44,31.7,31.72,1018.18,1,0
2022-11-02 15:14:41,1237,-245,89,61,-6,7,0,-43,44,31.7,31.72,1018.18,1,0
2022-11-02 15:14:41,1061,-52,35,95,-14,16,3,-38,55,31.7,31.73,1018.11,1,0
2022-11-02 15:14:41,1061,-52,35,95,-14,16,3,-38,55,31.7,31.73,1018.11,1,0
2022-11-02 15:14:41,868,-27,-21,62,-19,11,-1,-40,61,31.7,31.73,1018.11,1,0
2022-11-02 15:14:41,868,-27,-21,62,-19,11,-1,-40,61,31.7,31.73,1018.11,1,0
2022-11-02 15:14:41,927,-15,-160,62,-14,-4,1,-38,67,31.7,31.73,1018.11,1,0
2022-11-02 15:14:41,927,-15,-160,62,-14,-4,1,-38,67,31.7,31.73,1018.11,1,0
2022-11-02 15:14:41,1128,-60,-130,52,-14,-11,2,-34,71,31.7,31.73,1018.11,1,0
2022-11-02 15:14:41,1128,-60,-130,52,-14,-11,2,-34,71,31.7,31.73,1018.11,1,0
2022-11-02 15:14:42,1075,-302,76,-12,-4,0,4,-29,75,31.7,31.73,1018.11,1,0
2022-11-02 15:14:42,1075,-302,76,-12,-4,0,4,-29,75,31.7,31.73,1018.11,1,0
2022-11-02 15:14:42,958,144,169,58,17,-8,4,-28,74,31.7,31.73,1018.11,1,0
2022-11-02 15:14:42,958,144,169,58,17,-8,4,-28,74,31.7,31.73,1018.11,1,0
2022-11-02 15:14:42,829,13,19,9,19,-19,7,-24,80,31.7,31.73,1018.11,1,0
2022-11-02 15:14:42,829,13,19,9,19,-19,7,-24,80,31.7,31.73,1018.11,1,0
2022-11-02 15:14:42,991,195,-3,14,1,-11,5,-22,82,31.7,31.73,1018.11,1,0
2022-11-02 15:14:42,991,195,-3,14,1,-11,5,-22,82,31.7,31.73,1018.11,1,0
2022-11-02 15:14:42,1016,-23,39,0,6,12,7,-25,85,31.7,31.73,1018.11,1,0
2022-11-02 15:14:42,1016,-23,39,0,6,12,7,-25,85,31.7,31.73,1018.11,1,0
2022-11-02 15:14:42,1243,249,-101,-25,-13,-14,7,-26,79,31.7,31.73,1018.11,1,0
2022-11-02 15:14:42,1243,249,-101,-25,-13,-14,7,-26,79,31.7,31.73,1018.11,1,0
2022-11-02 15:14:42,1020,-152,191,11,-7,-13,9,-22,82,31.7,31.75,1018.14,1,0
2022-11-02 15:14:42,1020,-152,191,11,-7,-13,9,-22,82,31.7,31.75,1018.14,1,0
2022-11-02 15:14:42,1136,99,23,16,-13,8,10,-22,79,31.7,31.75,1018.14,1,0
2022-11-02 15:14:42,1136,99,23,16,-13,8,10,-22,79,31.7,31.75,1018.14,1,0
2022-11-02 15:14:42,829,-70,-136,64,-16,2,13,-22,82,31.7,31.75,1018.14,1,0
2022-11-02 15:14:42,829,-70,-136,64,-16,2,13,-22,82,31.7,31.75,1018.14,1,0
2022-11-02 15:14:42,833,29,-208,49,-8,0,15,-21,84,31.7,31.75,1018.14,1,0
2022-11-02 15:14:42,833,29,-208,49,-8,0,15,-21,84,31.7,31.75,1018.14,1,0
2022-11-02 15:14:43,1179,-160,-148,16,5,0,17,-15,91,31.7,31.75,1018.14,1,0
2022-11-02 15:14:43,1179,-160,-148,16,5,0,17,-15,91,31.7,31.75,1018.14,1,0
2022-11-02 15:14:43,1356,-265,39,8,-11,7,17,-13,93,31.7,31.75,1018.14,1,0
2022-11-02 15:14:43,1356,-265,39,8,-11,7,17,-13,93,31.7,31.75,1018.14,1,0
2022-11-02 15:14:43,897,66,72,6,16,-6,17,-16,97,31.7,31.75,1018.14,1,0
2022-11-02 15:14:43,897,66,72,6,16,-6,17,-16,97,31.7,31.75,1018.14,1,0
2022-11-02 15:14:43,970,-48,46,-57,32,-13,20,-14,90,31.7,31.75,1018.14,1,0
2022-11-02 15:14:43,970,-48,46,-57,32,-13,20,-14,90,31.7,31.75,1018.14,1,0
2022-11-02 15:14:43,917,210,-72,-33,6,-1,19,-13,92,31.7,31.75,1018.14,1,0
2022-11-02 15:14:43,917,210,-72,-33,6,-1,19,-13,92,31.7,31.75,1018.14,1,0
2022-11-02 15:14:43,950,70,-29,-27,-5,11,19,-16,92,31.7,31.75,1018.14,1,0
2022-11-02 15:14:43,950,70,-29,-27,-5,11,19,-16,92,31.7,31.75,1018.14,1,0
2022-11-02 15:14:43,1528,-97,-76,-22,-3,-7,21,-20,89,31.7,31.76,1018.17,1,0
2022-11-02 15:14:43,1528,-97,-76,-22,-3,-7,21,-20,89,31.7,31.76,1018.17,1,0
2022-11-02 15:14:43,681,-204,-25,-2,-4,-12,24,-23,91,31.7,31.76,1018.17,1,0
2022-11-02 15:14:43,681,-204,-25,-2,-4,-12,24,-23,91,31.7,31.76,1018.17,1,0
2022-11-02 15:14:43,1212,48,-27,-11,-7,9,25,-19,91,31.7,31.76,1018.17,1,0
2022-11-02 15:14:43,1212,48,-27,-11,-7,9,25,-19,91,31.7,31.76,1018.17,1,0
2022-11-02 15:14:43,808,-103,-115,16,-14,0,25,-20,88,31.7,31.76,1018.17,1,0
2022-11-02 15:14:43,808,-103,-115,16,-14,0,25,-20,88,31.7,31.76,1018.17,1,0
2022-11-02 15:14:44,886,48,-259,6,6,0,27,-18,89,31.7,31.76,1018.17,1,0
2022-11-02 15:14:44,886,48,-259,6,6,0,27,-18,89,31.7,31.76,1018.17,1,0
2022-11-02 15:14:44,1278,-83,-263,4,-5,-1,29,-19,86,31.7,31.76,1018.17,1,0
2022-11-02 15:14:44,1278,-83,-263,4,-5,-1,29,-19,86,31.7,31.76,1018.17,1,0
2022-11-02 15:14:44,970,-226,113,-4,-1,0,33,-13,85,31.7,31.76,1018.17,1,0
2022-11-02 15:14:44,970,-226,113,-4,-1,0,33,-13,85,31.7,31.76,1018.17,1,0
2022-11-02 15:14:44,1011,-70,-21,-1,7,-8,32,-13,81,31.7,31.76,1018.17,1,0
2022-11-02 15:14:44,1011,-70,-21,-1,7,-8,32,-13,81,31.7,31.76,1018.17,1,0
2022-11-02 15:14:44,847,210,-13,-44,-1,-18,36,-13,81,31.7,31.76,1018.17,1,0
2022-11-02 15:14:44,847,210,-13,-44,-1,-18,36,-13,81,31.7,31.76,1018.17,1,0
2022-11-02 15:14:44,917,138,-31,-25,17,10,37,-11,82,31.7,31.76,1018.17,1,0
2022-11-02 15:14:44,917,138,-31,-25,17,10,37,-11,82,31.7,31.76,1018.17,1,0
2022-11-02 15:14:44,1022,99,-5,-22,1,9,37,-11,76,31.7,31.76,1018.17,1,0
2022-11-02 15:14:44,1022,99,-5,-22,1,9,37,-11,76,31.7,31.76,1018.17,1,0
2022-11-02 15:14:44,1432,-15,15,-37,-7,-7,36,-14,76,31.7,31.76,1018.17,1,0
2022-11-02 15:14:44,1432,-15,15,-37,-7,-7,36,-14,76,31.7,31.76,1018.17,1,0
2022-11-02 15:14:44,612,-162,-74,-7,-8,-2,37,-12,76,31.7,31.76,1018.17,1,0
2022-11-02 15:14:44,612,-162,-74,-7,-8,-2,37,-12,76,31.7,31.76,1018.17,1,0
2022-11-02 15:14:44,1237,5,-1,13,-3,7,36,-11,76,31.7,31.76,1018.17,1,0
2022-11-02 15:14:44,1237,5,-1,13,-3,7,36,-11,76,31.7,31.76,1018.17,1,0
2022-11-02 15:14:45,812,87,-177,0,-12,8,38,-12,69,31.7,31.76,1018.17,1,0
2022-11-02 15:14:45,812,87,-177,0,-12,8,38,-12,69,31.7,31.76,1018.17,1,0
2022-11-02 15:14:45,970,-31,-124,0,0,-4,37,-15,70,31.7,31.76,1018.17,1,0
2022-11-02 15:14:45,970,-31,-124,0,0,-4,37,-15,70,31.7,31.76,1018.17,1,0
2022-11-02 15:14:45,1298,228,-93,-9,-28,10,37,-11,66,31.7,31.76,1018.17,1,0
2022-11-02 15:14:45,1298,228,-93,-9,-28,10,37,-11,66,31.7,31.76,1018.17,1,0
2022-11-02 15:14:45,784,-230,130,-31,9,0,37,-12,61,31.7,31.76,1018.17,1,0
2022-11-02 15:14:45,784,-230,130,-31,9,0,37,-12,61,31.7,31.76,1018.17,1,0
2022-11-02 15:14:45,1132,-222,140,-81,7,9,37,-12,63,31.7,31.76,1018.17,1,0
2022-11-02 15:14:45,1132,-222,140,-81,7,9,37,-12,63,31.7,31.76,1018.17,1,0
2022-11-02 15:14:45,954,-68,234,-124,16,8,35,-12,64,31.7,31.76,1018.17,1,0
2022-11-02 15:14:45,954,-68,234,-124,16,8,35,-12,64,31.7,31.76,1018.17,1,0
2022-11-02 15:14:45,1022,-148,269,-159,-1,27,35,-14,58,31.7,31.77,1018.11,1,0
2022-11-02 15:14:45,1022,-148,269,-159,-1,27,35,-14,58,31.7,31.77,1018.11,1,0
2022-11-02 15:14:45,888,-50,46,-169,30,26,34,-17,53,31.7,31.77,1018.11,1,0
2022-11-02 15:14:45,888,-50,46,-169,30,26,34,-17,53,31.7,31.77,1018.11,1,0
2022-11-02 15:14:45,1401,-187,115,-136,62,10,31,-18,44,31.7,31.77,1018.11,1,0
2022-11-02 15:14:45,1401,-187,115,-136,62,10,31,-18,44,31.7,31.77,1018.11,1,0
2022-11-02 15:14:45,946,-113,-42,-144,5,1,34,-18,39,31.7,31.77,1018.11,1,0
2022-11-02 15:14:45,946,-113,-42,-144,5,1,34,-18,39,31.7,31.77,1018.11,1,0
2022-11-02 15:14:46,936,-35,-144,-119,6,-26,34,-15,30,31.7,31.77,1018.11,1,0
2022-11-02 15:14:46,936,-35,-144,-119,6,-26,34,-15,30,31.7,31.77,1018.11,1,0
2022-11-02 15:14:46,1016,-267,-201,-116,-7,-9,32,-8,30,31.7,31.77,1018.11,1,0
2022-11-02 15:14:46,1016,-267,-201,-116,-7,-9,32,-8,30,31.7,31.77,1018.11,1,0
2022-11-02 15:14:46,1288,-167,-64,-133,-4,21,34,-2,24,31.7,31.77,1018.11,1,0
2022-11-02 15:14:46,1288,-167,-64,-133,-4,21,34,-2,24,31.7,31.77,1018.11,1,0
2022-11-02 15:14:46,985,85,156,-70,21,-12,34,-1,24,31.7,31.77,1018.11,1,0
2022-11-02 15:14:46,985,85,156,-70,21,-12,34,-1,24,31.7,31.77,1018.11,1,0
2022-11-02 15:14:46,938,40,23,-85,18,-9,33,3,20,31.7,31.77,1018.11,1,0
2022-11-02 15:14:46,938,40,23,-85,18,-9,33,3,20,31.7,31.77,1018.11,1,0
2022-11-02 15:14:46,976,158,-40,-62,11,-11,35,7,17,31.7,31.77,1018.11,1,0
2022-11-02 15:14:46,976,158,-40,-62,11,-11,35,7,17,31.7,31.77,1018.11,1,0
2022-11-02 15:14:46,974,122,-56,-54,4,-5,34,13,14,31.7,31.77,1018.16,1,0
2022-11-02 15:14:46,974,122,-56,-54,4,-5,34,13,14,31.7,31.77,1018.16,1,0
2022-11-02 15:14:46,1040,101,-33,-43,1,-1,37,17,19,31.7,31.77,1018.16,1,0
2022-11-02 15:14:46,1040,101,-33,-43,1,-1,37,17,19,31.7,31.77,1018.16,1,0
2022-11-02 15:14:46,1385,-19,-101,-47,-6,-14,37,19,16,31.7,31.77,1018.16,1,0
2022-11-02 15:14:46,1385,-19,-101,-47,-6,-14,37,19,16,31.7,31.77,1018.16,1,0
2022-11-02 15:14:46,710,-210,81,-42,-2,-1,38,22,18,31.7,31.77,1018.16,1,0
2022-11-02 15:14:46,710,-210,81,-42,-2,-1,38,22,18,31.7,31.77,1018.16,1,0
2022-11-02 15:14:46,1270,76,7,-49,6,14,34,26,18,31.7,31.77,1018.16,1,0
2022-11-02 15:14:46,1270,76,7,-49,6,14,34,26,18,31.7,31.77,1018.16,1,0
2022-11-02 15:14:47,858,-19,-138,-16,-10,7,36,29,16,31.7,31.77,1018.16,1,0
2022-11-02 15:14:47,858,-19,-138,-16,-10,7,36,29,16,31.7,31.77,1018.16,1,0
2022-11-02 15:14:47,919,37,-244,-11,-6,4,37,29,19,31.7,31.77,1018.16,1,0
2022-11-02 15:14:47,919,37,-244,-11,-6,4,37,29,19,31.7,31.77,1018.16,1,0
2022-11-02 15:14:47,1177,-204,-203,-3,0,7,35,30,11,31.7,31.77,1018.16,1,0
2022-11-02 15:14:47,1177,-204,-203,-3,0,7,35,30,11,31.7,31.77,1018.16,1,0
2022-11-02 15:14:47,1352,-283,144,-22,10,9,33,31,12,31.7,31.77,1018.16,1,0
2022-11-02 15:14:47,1352,-283,144,-22,10,9,33,31,12,31.7,31.77,1018.16,1,0
2022-11-02 15:14:47,905,214,167,-3,14,-11,31,34,8,31.7,31.77,1018.16,1,0
2022-11-02 15:14:47,905,214,167,-3,14,-11,31,34,8,31.7,31.77,1018.16,1,0
2022-11-02 15:14:47,944,62,-1,-39,11,-16,31,38,10,31.7,31.77,1018.2,1,0
2022-11-02 15:14:47,944,62,-1,-39,11,-16,31,38,10,31.7,31.77,1018.2,1,0
2022-11-02 15:14:47,950,146,-58,-20,13,0,30,39,11,31.7,31.77,1018.2,1,0
2022-11-02 15:14:47,950,146,-58,-20,13,0,30,39,11,31.7,31.77,1018.2,1,0
2022-11-02 15:14:47,999,56,0,-17,3,9,27,41,11,31.7,31.77,1018.2,1,0
2022-11-02 15:14:47,999,56,0,-17,3,9,27,41,11,31.7,31.77,1018.2,1,0
2022-11-02 15:14:47,1483,173,-72,-9,-4,-11,28,42,11,31.7,31.77,1018.2,1,0
2022-11-02 15:14:47,1483,173,-72,-9,-4,-11,28,42,11,31.7,31.77,1018.2,1,0
2022-11-02 15:14:47,724,-212,21,21,-1,-14,25,48,15,31.7,31.77,1018.2,1,0
2022-11-02 15:14:47,724,-212,21,21,-1,-14,25,48,15,31.7,31.77,1018.2,1,0
2022-11-02 15:14:48,1143,58,21,13,-6,12,20,49,21,31.7,31.77,1018.2,1,0
2022-11-02 15:14:48,1143,58,21,13,-6,12,20,49,21,31.7,31.77,1018.2,1,0
2022-11-02 15:14:48,853,-17,-128,34,-14,4,21,50,16,31.7,31.77,1018.2,1,0
2022-11-02 15:14:48,853,-17,-128,34,-14,4,21,50,16,31.7,31.77,1018.2,1,0
2022-11-02 15:14:48,868,-42,-171,17,-3,-2,18,41,12,31.7,31.77,1018.2,1,0
2022-11-02 15:14:48,868,-42,-171,17,-3,-2,18,41,12,31.7,31.77,1018.2,1,0
2022-11-02 15:14:48,1249,-128,-244,8,-14,13,16,44,8,31.7,31.77,1018.2,1,0
2022-11-02 15:14:48,1249,-128,-244,8,-14,13,16,44,8,31.7,31.77,1018.2,1,0
2022-11-02 15:14:48,999,-310,169,-13,-4,11,17,40,15,31.7,31.77,1018.2,1,0
2022-11-02 15:14:48,999,-310,169,-13,-4,11,17,40,15,31.7,31.77,1018.2,1,0
2022-11-02 15:14:48,964,83,52,8,16,-4,13,43,9,31.7,31.8,1018.2,1,0
2022-11-02 15:14:48,964,83,52,8,16,-4,13,43,9,31.7,31.8,1018.2,1,0
2022-11-02 15:14:48,884,203,11,-9,15,-20,15,44,12,31.7,31.8,1018.2,1,0
2022-11-02 15:14:48,884,203,11,-9,15,-20,15,44,12,31.7,31.8,1018.2,1,0
2022-11-02 15:14:48,981,193,-25,-1,15,4,13,45,16,31.7,31.8,1018.2,1,0
2022-11-02 15:14:48,981,193,-25,-1,15,4,13,45,16,31.7,31.8,1018.2,1,0
2022-11-02 15:14:48,1110,74,31,0,4,10,13,42,17,31.7,31.8,1018.2,1,0
2022-11-02 15:14:48,1110,74,31,0,4,10,13,42,17,31.7,31.8,1018.2,1,0
2022-11-02 15:14:48,1333,97,240,23,0,-26,14,44,18,31.7,31.8,1018.2,1,0
2022-11-02 15:14:48,1333,97,240,23,0,-26,14,44,18,31.7,31.8,1018.2,1,0
2022-11-02 15:14:49,878,-93,-74,31,-15,6,15,47,16,31.7,31.8,1018.2,1,0
2022-11-02 15:14:49,878,-93,-74,31,-15,6,15,47,16,31.7,31.8,1018.2,1,0
2022-11-02 15:14:49,948,50,-23,58,-13,-5,14,44,12,31.7,31.8,1018.2,1,0
2022-11-02 15:14:49,948,50,-23,58,-13,-5,14,44,12,31.7,31.8,1018.2,1,0
2022-11-02 15:14:49,874,-40,-72,50,0,0,10,37,10,31.7,31.8,1018.2,1,0
2022-11-02 15:14:49,874,-40,-72,50,0,0,10,37,10,31.7,31.8,1018.2,1,0
2022-11-02 15:14:49,1141,-167,-21,28,7,3,9,35,12,31.7,31.8,1018.2,1,0
2022-11-02 15:14:49,1141,-167,-21,28,7,3,9,35,12,31.7,31.8,1018.2,1,0
2022-11-02 15:14:49,1342,117,56,7,-7,5,10,36,7,31.7,31.8,1018.2,1,0
2022-11-02 15:14:49,1342,117,56,7,-7,5,10,36,7,31.7,31.8,1018.2,1,0
2022-11-02 15:14:49,712,298,44,8,1,-1,7,37,7,31.7,31.8,1018.16,1,0
2022-11-02 15:14:49,712,298,44,8,1,-1,7,37,7,31.7,31.8,1018.16,1,0
2022-11-02 15:14:49,1106,-158,21,15,21,-2,6,37,9,31.7,31.8,1018.16,1,0
2022-11-02 15:14:49,1106,-158,21,15,21,-2,6,37,9,31.7,31.8,1018.16,1,0
2022-11-02 15:14:49,868,316,-101,20,0,-1,7,35,11,31.7,31.8,1018.16,1,0
2022-11-02 15:14:49,868,316,-101,20,0,-1,7,35,11,31.7,31.8,1018.16,1,0
2022-11-02 15:14:49,1022,40,39,35,4,17,5,34,14,31.7,31.8,1018.16,1,0
2022-11-02 15:14:49,1022,40,39,35,4,17,5,34,14,31.7,31.8,1018.16,1,0
2022-11-02 15:14:49,1073,-148,-48,0,-3,-25,5,31,10,31.7,31.8,1018.16,1,0
2022-11-02 15:14:49,1073,-148,-48,0,-3,-25,5,31,10,31.7,31.8,1018.16,1,0
2022-11-02 15:14:50,847,-78,11,18,14,-10,5,32,9,31.7,31.8,1018.16,1,0
2022-11-02 15:14:50,847,-78,11,18,14,-10,5,32,9,31.7,31.8,1018.16,1,0
2022-11-02 15:14:50,1323,105,95,91,0,4,2,35,9,31.7,31.8,1018.16,1,0
2022-11-02 15:14:50,1323,105,95,91,0,4,2,35,9,31.7,31.8,1018.16,1,0
2022-11-02 15:14:50,925,17,9,100,-4,10,3,34,5,31.7,31.8,1018.16,1,0
2022-11-02 15:14:50,925,17,9,100,-4,10,3,34,5,31.7,31.8,1018.16,1,0
2022-11-02 15:14:50,845,-13,37,133,4,-9,2,24,1,31.7,31.8,1018.16,1,0
2022-11-02 15:14:50,845,-13,37,133,4,-9,2,24,1,31.7,31.8,1018.16,1,0
2022-11-02 15:14:50,1093,-19,443,160,46,14,1,9,-1,31.7,31.8,1018.16,1,0
2022-11-02 15:14:50,1093,-19,443,160,46,14,1,9,-1,31.7,31.8,1018.16,1,0
2022-11-02 15:14:50,1056,40,226,92,27,28,6,-3,-3,31.7,31.81,1018.11,1,0
2022-11-02 15:14:50,1056,40,226,92,27,28,6,-3,-3,31.7,31.81,1018.11,1,0
2022-11-02 15:14:50,894,546,85,140,-14,3,8,-13,2,31.7,31.81,1018.11,1,0
2022-11-02 15:14:50,894,546,85,140,-14,3,8,-13,2,31.7,31.81,1018.11,1,0
2022-11-02 15:14:50,1005,142,283,157,-14,19,6,-24,9,31.7,31.81,1018.11,1,0
2022-11-02 15:14:50,1005,142,283,157,-14,19,6,-24,9,31.7,31.81,1018.11,1,0
2022-11-02 15:14:50,1056,238,349,115,17,25,6,-34,20,31.7,31.81,1018.11,1,0
2022-11-02 15:14:50,1056,238,349,115,17,25,6,-34,20,31.7,31.81,1018.11,1,0
2022-11-02 15:14:50,1083,138,302,101,4,-3,2,-41,34,31.7,31.81,1018.11,1,0
2022-11-02 15:14:50,1083,138,302,101,4,-3,2,-41,34,31.7,31.81,1018.11,1,0
2022-11-02 15:14:51,1214,-353,87,54,-19,15,3,-41,46,31.7,31.81,1018.11,1,0
2022-11-02 15:14:51,1214,-353,87,54,-19,15,3,-41,46,31.7,31.81,1018.11,1,0
2022-11-02 15:14:51,981,-163,89,111,-17,19,4,-37,56,31.7,31.81,1018.11,1,0
2022-11-02 15:14:51,981,-163,89,111,-17,19,4,-37,56,31.7,31.81,1018.11,1,0
2022-11-02 15:14:51,849,58,-7,76,-18,19,3,-38,60,31.7,31.81,1018.11,1,0
2022-11-02 15:14:51,849,58,-7,76,-18,19,3,-38,60,31.7,31.81,1018.11,1,0
2022-11-02 15:14:51,907,-64,-134,85,-10,0,5,-33,66,31.7,31.81,1018.11,1,0
2022-11-02 15:14:51,907,-64,-134,85,-10,0,5,-33,66,31.7,31.81,1018.11,1,0
2022-11-02 15:14:51,1149,-101,-80,52,-8,-1,5,-32,74,31.7,31.81,1018.11,1,0
2022-11-02 15:14:51,1149,-101,-80,52,-8,-1,5,-32,74,31.7,31.81,1018.11,1,0
2022-11-02 15:14:51,921,-29,-25,14,-23,-10,3,-28,81,31.7,31.8,1018.17,1,0
2022-11-02 15:14:51,921,-29,-25,14,-23,-10,3,-28,81,31.7,31.8,1018.17,1,0
2022-11-02 15:14:51,1177,-111,160,49,4,-4,6,-27,78,31.7,31.8,1018.17,1,0
2022-11-02 15:14:51,1177,-111,160,49,4,-4,6,-27,78,31.7,31.8,1018.17,1,0
2022-11-02 15:14:51,780,11,89,30,18,-21,8,-23,83,31.7,31.8,1018.17,1,0
2022-11-02 15:14:51,780,11,89,30,18,-21,8,-23,83,31.7,31.8,1018.17,1,0
2022-11-02 15:14:51,940,60,17,-16,23,3,7,-19,87,31.7,31.8,1018.17,1,0
2022-11-02 15:14:51,940,60,17,-16,23,3,7,-19,87,31.7,31.8,1018.17,1,0
2022-11-02 15:14:51,1153,142,-3,-26,-14,0,7,-20,91,31.7,31.8,1018.17,1,0
2022-11-02 15:14:51,1153,142,-3,-26,-14,0,7,-20,91,31.7,31.8,1018.17,1,0
2022-11-02 15:14:52,1540,-70,249,-10,-3,-2,8,-20,86,31.7,31.8,1018.17,1,0
2022-11-02 15:14:52,1540,-70,249,-10,-3,-2,8,-20,86,31.7,31.8,1018.17,1,0
2022-11-02 15:14:52,909,-107,-11,28,-10,-10,10,-23,86,31.7,31.8,1018.17,1,0
2022-11-02 15:14:52,909,-107,-11,28,-10,-10,10,-23,86,31.7,31.8,1018.17,1,0
2022-11-02 15:14:52,946,15,-91,40,-19,8,11,-23,94,31.7,31.8,1018.17,1,0
2022-11-02 15:14:52,946,15,-91,40,-19,8,11,-23,94,31.7,31.8,1018.17,1,0
2022-11-02 15:14:52,847,-27,-119,37,-15,3,14,-17,90,31.7,31.8,1018.17,1,0
2022-11-02 15:14:52,847,-27,-119,37,-15,3,14,-17,90,31.7,31.8,1018.17,1,0
2022-11-02 15:14:52,1048,-15,-107,31,0,-15,12,-16,91,31.7,31.8,1018.17,1,0
2022-11-02 15:14:52,1048,-15,-107,31,0,-15,12,-16,91,31.7,31.8,1018.17,1,0
2022-11-02 15:14:52,1464,-15,-60,-6,-32,15,19,-12,92,31.7,31.82,1018.14,1,0
2022-11-02 15:14:52,1464,-15,-60,-6,-32,15,19,-12,92,31.7,31.82,1018.14,1,0
2022-11-02 15:14:52,612,107,78,-20,0,-1,18,-13,97,31.7,31.82,1018.14,1,0
2022-11-02 15:14:52,612,107,78,-20,0,-1,18,-13,97,31.7,31.82,1018.14,1,0
2022-11-02 15:14:52,1116,-296,66,-58,28,-1,21,-12,94,31.7,31.82,1018.14,1,0
2022-11-02 15:14:52,1116,-296,66,-58,28,-1,21,-12,94,31.7,31.82,1018.14,1,0
2022-11-02 15:14:52,829,392,-95,-45,7,-12,19,-16,93,31.7,31.82,1018.14,1,0
2022-11-02 15:14:52,829,392,-95,-45,7,-12,19,-16,93,31.7,31.82,1018.14,1,0
2022-11-02 15:14:52,952,121,-60,-16,8,11,23,-18,87,31.7,31.82,1018.14,1,0
2022-11-02 15:14:52,952,121,-60,-16,8,11,23,-18,87,31.7,31.82,1018.14,1,0
2022-11-02 15:14:53,1255,185,-76,-10,-1,-6,24,-18,93,31.7,31.82,1018.14,1,0
2022-11-02 15:14:53,1255,185,-76,-10,-1,-6,24,-18,93,31.7,31.82,1018.14,1,0
2022-11-02 15:14:53,1011,-158,204,8,3,-14,24,-22,90,31.7,31.82,1018.14,1,0
2022-11-02 15:14:53,1011,-158,204,8,3,-14,24,-22,90,31.7,31.82,1018.14,1,0
2022-11-02 15:14:53,1106,58,17,-5,-4,19,28,-17,90,31.7,31.82,1018.14,1,0
2022-11-02 15:14:53,1106,58,17,-5,-4,19,28,-17,90,31.7,31.82,1018.14,1,0
2022-11-02 15:14:53,862,-56,-119,26,-12,3,28,-15,87,31.7,31.82,1018.14,1,0
2022-11-02 15:14:53,862,-56,-119,26,-12,3,28,-15,87,31.7,31.82,1018.14,1,0
2022-11-02 15:14:53,897,-48,-185,11,-1,2,29,-15,87,31.7,31.82,1018.14,1,0
2022-11-02 15:14:53,897,-48,-185,11,-1,2,29,-15,87,31.7,31.82,1018.14,1,0
2022-11-02 15:14:53,1218,-162,-183,1,-8,14,33,-14,86,31.7,31.82,1018.17,1,0
2022-11-02 15:14:53,1218,-162,-183,1,-8,14,33,-14,86,31.7,31.82,1018.17,1,0
2022-11-02 15:14:53,919,-247,-15,-4,-19,0,33,-13,83,31.7,31.82,1018.17,1,0
2022-11-02 15:14:53,919,-247,-15,-4,-19,0,33,-13,83,31.7,31.82,1018.17,1,0
2022-11-02 15:14:53,1005,19,72,4,18,-1,35,-12,83,31.7,31.82,1018.17,1,0
2022-11-02 15:14:53,1005,19,72,4,18,-1,35,-12,83,31.7,31.82,1018.17,1,0
2022-11-02 15:14:53,894,195,-5,-32,10,-13,36,-11,79,31.7,31.82,1018.17,1,0
2022-11-02 15:14:53,894,195,-5,-32,10,-13,36,-11,79,31.7,31.82,1018.17,1,0
2022-11-02 15:14:53,921,156,-27,-5,16,5,36,-12,76,31.7,31.82,1018.17,1,0
2022-11-02 15:14:53,921,156,-27,-5,16,5,36,-12,76,31.7,31.82,1018.17,1,0
2022-11-02 15:14:54,1202,128,-25,-13,3,1,36,-9,76,31.7,31.82,1018.17,1,0
2022-11-02 15:14:54,1202,128,-25,-13,3,1,36,-9,76,31.7,31.82,1018.17,1,0
2022-11-02 15:14:54,1292,-54,288,2,9,-18,36,-11,78,31.7,31.82,1018.17,1,0
2022-11-02 15:14:54,1292,-54,288,2,9,-18,36,-11,78,31.7,31.82,1018.17,1,0
2022-11-02 15:14:54,1024,-81,-37,-9,0,8,36,-8,75,31.7,31.82,1018.17,1,0
2022-11-02 15:14:54,1024,-81,-37,-9,0,8,36,-8,75,31.7,31.82,1018.17,1,0
2022-11-02 15:14:54,915,19,-91,25,-9,2,37,-7,75,31.7,31.82,1018.17,1,0
2022-11-02 15:14:54,915,19,-91,25,-9,2,37,-7,75,31.7,31.82,1018.17,1,0
2022-11-02 15:14:54,864,-70,-85,11,-1,-4,36,-8,73,31.7,31.82,1018.17,1,0
2022-11-02 15:14:54,864,-70,-85,11,-1,-4,36,-8,73,31.7,31.82,1018.17,1,0
2022-11-02 15:14:54,1081,-122,-21,-22,4,-4,36,-7,71,31.7,31.82,1018.14,1,0
2022-11-02 15:14:54,1081,-122,-21,-22,4,-4,36,-7,71,31.7,31.82,1018.14,1,0
2022-11-02 15:14:54,845,-308,64,-62,-5,5,34,-3,72,31.7,31.82,1018.14,1,0
2022-11-02 15:14:54,845,-308,64,-62,-5,5,34,-3,72,31.7,31.82,1018.14,1,0
2022-11-02 15:14:54,1163,-162,179,-111,-1,6,33,-8,67,31.7,31.82,1018.14,1,0
2022-11-02 15:14:54,1163,-162,179,-111,-1,6,33,-8,67,31.7,31.82,1018.14,1,0
2022-11-02 15:14:54,966,-31,228,-159,11,8,32,-8,67,31.7,31.82,1018.14,1,0
2022-11-02 15:14:54,966,-31,228,-159,11,8,32,-8,67,31.7,31.82,1018.14,1,0
2022-11-02 15:14:54,995,-121,230,-170,-4,23,30,-12,57,31.7,31.82,1018.14,1,0
2022-11-02 15:14:54,995,-121,230,-170,-4,23,30,-12,57,31.7,31.82,1018.14,1,0
2022-11-02 15:14:55,872,13,17,-156,34,24,31,-17,51,31.7,31.82,1018.14,1,0
2022-11-02 15:14:55,872,13,17,-156,34,24,31,-17,51,31.7,31.82,1018.14,1,0
2022-11-02 15:14:55,1393,-68,68,-116,43,3,30,-18,43,31.7,31.82,1018.14,1,0
2022-11-02 15:14:55,1393,-68,68,-116,43,3,30,-18,43,31.7,31.82,1018.14,1,0
2022-11-02 15:14:55,923,46,-191,-110,-1,7,31,-14,43,31.7,31.82,1018.14,1,0
2022-11-02 15:14:55,923,46,-191,-110,-1,7,31,-14,43,31.7,31.82,1018.14,1,0
2022-11-02 15:14:55,964,-152,-148,-58,9,-18,31,-15,36,31.7,31.82,1018.14,1,0
2022-11-02 15:14:55,964,-152,-148,-58,9,-18,31,-15,36,31.7,31.82,1018.14,1,0
2022-11-02 15:14:55,1077,-175,-214,-70,0,-14,31,-12,37,31.7,31.82,1018.14,1,0
2022-11-02 15:14:55,1077,-175,-214,-70,0,-14,31,-12,37,31.7,31.82,1018.14,1,0
2022-11-02 15:14:55,1177,-226,-25,-90,11,11,32,-7,34,31.7,31.86,1018.16,1,0
2022-11-02 15:14:55,1177,-226,-25,-90,11,11,32,-7,34,31.7,31.86,1018.16,1,0
2022-11-02 15:14:55,1001,78,-78,-86,-18,-1,33,-7,33,31.7,31.86,1018.16,1,0
2022-11-02 15:14:55,1001,78,-78,-86,-18,-1,33,-7,33,31.7,31.86,1018.16,1,0
2022-11-02 15:14:55,1005,-74,189,-71,13,-14,32,-3,22,31.7,31.86,1018.16,1,0
2022-11-02 15:14:55,1005,-74,189,-71,13,-14,32,-3,22,31.7,31.86,1018.16,1,0
2022-11-02 15:14:55,1026,124,25,-88,21,-11,31,2,23,31.7,31.86,1018.16,1,0
2022-11-02 15:14:55,1026,124,25,-88,21,-11,31,2,23,31.7,31.86,1018.16,1,0
2022-11-02 15:14:55,817,60,3,-67,21,-11,34,4,21,31.7,31.86,1018.16,1,0
2022-11-02 15:14:55,817,60,3,-67,21,-11,34,4,21,31.7,31.86,1018.16,1,0
2022-11-02 15:14:56,1018,193,-68,-57,-2,-2,37,8,20,31.7,31.86,1018.16,1,0
2022-11-02 15:14:56,1018,193,-68,-57,-2,-2,37,8,20,31.7,31.86,1018.16,1,0
2022-11-02 15:14:56,1106,72,-33,-42,0,-8,39,10,20,31.7,31.86,1018.16,1,0
2022-11-02 15:14:56,1106,72,-33,-42,0,-8,39,10,20,31.7,31.86,1018.16,1,0
2022-11-02 15:14:56,1348,-62,288,-50,5,-7,39,13,19,31.7,31.86,1018.16,1,0
2022-11-02 15:14:56,1348,-62,288,-50,5,-7,39,13,19,31.7,31.86,1018.16,1,0
2022-11-02 15:14:56,821,-146,-21,-80,-8,11,39,19,21,31.7,31.86,1018.16,1,0
2022-11-02 15:14:56,821,-146,-21,-80,-8,11,39,19,21,31.7,31.86,1018.16,1,0
2022-11-02 15:14:56,989,-1,-60,-22,-2,0,40,21,24,31.7,31.86,1018.16,1,0
2022-11-02 15:14:56,989,-1,-60,-22,-2,0,40,21,24,31.7,31.86,1018.16,1,0
2022-11-02 15:14:56,921,-101,-134,-28,-9,4,40,27,16,31.7,31.86,1018.17,1,0
2022-11-02 15:14:56,921,-101,-134,-28,-9,4,40,27,16,31.7,31.86,1018.17,1,0
2022-11-02 15:14:56,1052,0,-197,0,0,-9,38,24,21,31.7,31.86,1018.17,1,0
2022-11-02 15:14:56,1052,0,-197,0,0,-9,38,24,21,31.7,31.86,1018.17,1,0
2022-11-02 15:14:56,1391,17,-35,-19,-27,16,39,27,15,31.7,31.86,1018.17,1,0
2022-11-02 15:14:56,1391,17,-35,-19,-27,16,39,27,15,31.7,31.86,1018.17,1,0
2022-11-02 15:14:56,632,56,134,-38,-6,-7,38,27,17,31.7,31.86,1018.17,1,0
2022-11-02 15:14:56,632,56,134,-38,-6,-7,38,27,17,31.7,31.86,1018.17,1,0
2022-11-02 15:14:56,1095,-165,-9,-31,16,-5,32,29,12,31.7,31.86,1018.17,1,0
2022-11-02 15:14:56,1095,-165,-9,-31,16,-5,32,29,12,31.7,31.86,1018.17,1,0
2022-11-02 15:14:57,870,253,-23,-36,10,-13,33,33,10,31.7,31.86,1018.17,1,0
2022-11-02 15:14:57,870,253,-23,-36,10,-13,33,33,10,31.7,31.86,1018.17,1,0
2022-11-02 15:14:57,976,150,-13,-21,9,4,32,36,15,31.7,31.86,1018.17,1,0
2022-11-02 15:14:57,976,150,-13,-21,9,4,32,36,15,31.7,31.86,1018.17,1,0
2022-11-02 15:14:57,1091,162,13,-15,0,1,32,41,14,31.7,31.86,1018.17,1,0
2022-11-02 15:14:57,1091,162,13,-15,0,1,32,41,14,31.7,31.86,1018.17,1,0
2022-11-02 15:14:57,1282,111,212,-17,-11,-19,32,40,18,31.7,31.86,1018.17,1,0
2022-11-02 15:14:57,1282,111,212,-17,-11,-19,32,40,18,31.7,31.86,1018.17,1,0
2022-11-02 15:14:57,880,-156,-23,6,-7,7,29,45,13,31.7,31.86,1018.17,1,0
2022-11-02 15:14:57,880,-156,-23,6,-7,7,29,45,13,31.7,31.86,1018.17,1,0
2022-11-02 15:14:57,915,0,-95,33,-23,6,26,47,18,31.7,31.86,1018.17,1,0
2022-11-02 15:14:57,915,0,-95,33,-23,6,26,47,18,31.7,31.86,1018.17,1,0
2022-11-02 15:14:57,864,-62,-146,16,-6,7,24,47,10,31.7,31.86,1018.14,1,0
2022-11-02 15:14:57,864,-62,-146,16,-6,7,24,47,10,31.7,31.86,1018.14,1,0
2022-11-02 15:14:57,1061,-83,-140,18,2,-2,21,41,11,31.7,31.86,1018.14,1,0
2022-11-02 15:14:57,1061,-83,-140,18,2,-2,21,41,11,31.7,31.86,1018.14,1,0
2022-11-02 15:14:57,1278,167,-134,-13,-26,12,19,41,12,31.7,31.86,1018.14,1,0
2022-11-02 15:14:57,1278,167,-134,-13,-26,12,19,41,12,31.7,31.86,1018.14,1,0
2022-11-02 15:14:57,790,-179,119,-20,-3,-2,15,41,7,31.7,31.86,1018.14,1,0
2022-11-02 15:14:57,790,-179,119,-20,-3,-2,15,41,7,31.7,31.86,1018.14,1,0
2022-11-02 15:14:58,1124,-107,-21,-1,18,6,14,43,12,31.7,31.86,1018.14,1,0
2022-11-02 15:14:58,1124,-107,-21,-1,18,6,14,43,12,31.7,31.86,1018.14,1,0
2022-11-02 15:14:58,843,263,-21,-5,11,-20,15,46,10,31.7,31.86,1018.14,1,0
2022-11-02 15:14:58,843,263,-21,-5,11,-20,15,46,10,31.7,31.86,1018.14,1,0
2022-11-02 15:14:58,983,152,-27,-8,18,6,13,47,12,31.7,31.86,1018.14,1,0
2022-11-02 15:14:58,983,152,-27,-8,18,6,13,47,12,31.7,31.86,1018.14,1,0
2022-11-02 15:14:58,1032,136,-64,-16,1,2,14,46,14,31.7,31.86,1018.14,1,0
2022-11-02 15:14:58,1032,136,-64,-16,1,2,14,46,14,31.7,31.86,1018.14,1,0
2022-11-02 15:14:58,1294,46,130,1,0,-14,14,45,19,31.7,31.86,1018.14,1,0
2022-11-02 15:14:58,1294,46,130,1,0,-14,14,45,19,31.7,31.86,1018.14,1,0
2022-11-02 15:14:58,784,-171,-44,21,-11,3,13,46,17,31.7,31.86,1018.14,1,0
2022-11-02 15:14:58,784,-171,-44,21,-11,3,13,46,17,31.7,31.86,1018.14,1,0
2022-11-02 15:14:58,1030,11,-40,32,-21,-7,14,49,14,31.7,31.87,1018.13,1,0
2022-11-02 15:14:58,1030,11,-40,32,-21,-7,14,49,14,31.7,31.87,1018.13,1,0
2022-11-02 15:14:58,864,40,-179,36,-9,3,11,47,12,31.7,31.87,1018.13,1,0
2022-11-02 15:14:58,864,40,-179,36,-9,3,11,47,12,31.7,31.87,1018.13,1,0
2022-11-02 15:14:58,962,7,-187,37,4,-7,10,41,13,31.7,31.87,1018.13,1,0
2022-11-02 15:14:58,962,7,-187,37,4,-7,10,41,13,31.7,31.87,1018.13,1,0
2022-11-02 15:14:58,1372,171,-85,2,-18,13,10,39,10,31.7,31.87,1018.13,1,0
2022-11-02 15:14:58,1372,171,-85,2,-18,13,10,39,10,31.7,31.87,1018.13,1,0
2022-11-02 15:14:59,702,222,50,10,-1,-8,9,38,8,31.7,31.87,1018.13,1,0
2022-11-02 15:14:59,702,222,50,10,-1,-8,9,38,8,31.7,31.87,1018.13,1,0
2022-11-02 15:14:59,1108,-183,9,29,20,-1,8,37,12,31.7,31.87,1018.13,1,0
2022-11-02 15:14:59,1108,-183,9,29,20,-1,8,37,12,31.7,31.87,1018.13,1,0
2022-11-02 15:14:59,845,312,-23,1,2,-9,9,34,12,31.7,31.87,1018.13,1,0
2022-11-02 15:14:59,845,312,-23,1,2,-9,9,34,12,31.7,31.87,1018.13,1,0
2022-11-02 15:14:59,983,78,31,10,2,21,4,35,12,31.7,31.87,1018.13,1,0
2022-11-02 15:14:59,983,78,31,10,2,21,4,35,12,31.7,31.87,1018.13,1,0
2022-11-02 15:14:59,954,17,-46,-7,-3,5,6,37,13,31.7,31.87,1018.13,1,0
2022-11-02 15:14:59,954,17,-46,-7,-3,5,6,37,13,31.7,31.87,1018.13,1,0
2022-11-02 15:14:59,1510,244,247,-8,8,-20,6,35,12,31.7,31.87,1018.13,1,0
2022-11-02 15:14:59,1510,244,247,-8,8,-20,6,35,12,31.7,31.87,1018.13,1,0
2022-11-02 15:14:59,667,216,-117,36,-15,3,7,36,11,31.7,31.89,1018.18,1,0
2022-11-02 15:14:59,667,216,-117,36,-15,3,7,36,11,31.7,31.89,1018.18,1,0
2022-11-02 15:14:59,1102,-99,19,135,-1,-1,2,41,11,31.7,31.89,1018.18,1,0
2022-11-02 15:14:59,1102,-99,19,135,-1,-1,2,41,11,31.7,31.89,1018.18,1,0
2022-11-02 15:14:59,944,111,13,140,-7,0,2,31,7,31.7,31.89,1018.18,1,0
2022-11-02 15:14:59,944,111,13,140,-7,0,2,31,7,31.7,31.89,1018.18,1,0
2022-11-02 15:14:59,970,-136,95,149,9,-14,2,22,6,31.7,31.89,1018.18,1,0
2022-11-02 15:14:59,970,-136,95,149,9,-14,2,22,6,31.7,31.89,1018.18,1,0
2022-11-02 15:15:00,1061,-74,189,102,27,-8,3,10,0,31.7,31.89,1018.18,1,0
2022-11-02 15:15:00,1061,-74,189,102,27,-8,3,10,0,31.7,31.89,1018.18,1,0
2022-11-02 15:15:00,882,220,130,96,13,21,3,1,-3,31.7,31.89,1018.18,1,0
2022-11-02 15:15:00,882,220,130,96,13,21,3,1,-3,31.7,31.89,1018.18,1,0
2022-11-02 15:15:00,1063,60,177,128,10,4,3,-12,1,31.7,31.89,1018.18,1,0
2022-11-02 15:15:00,1063,60,177,128,10,4,3,-12,1,31.7,31.89,1018.18,1,0
2022-11-02 15:15:00,970,230,103,101,-7,-2,6,-21,12,31.7,31.89,1018.18,1,0
2022-11-02 15:15:00,970,230,103,101,-7,-2,6,-21,12,31.7,31.89,1018.18,1,0
2022-11-02 15:15:00,1007,144,144,86,-7,0,6,-28,17,31.7,31.89,1018.18,1,0
2022-11-02 15:15:00,1007,144,144,86,-7,0,6,-28,17,31.7,31.89,1018.18,1,0
2022-11-02 15:15:00,903,314,175,91,-8,0,5,-34,24,31.7,31.89,1018.18,1,0
2022-11-02 15:15:00,903,314,175,91,-8,0,5,-34,24,31.7,31.89,1018.18,1,0
2022-11-02 15:15:00,1028,70,212,81,-11,-5,6,-38,33,31.7,31.87,1018.15,1,0
2022-11-02 15:15:00,1028,70,212,81,-11,-5,6,-38,33,31.7,31.87,1018.15,1,0
2022-11-02 15:15:00,1288,-132,142,74,7,3,6,-36,43,31.7,31.87,1018.15,1,0
2022-11-02 15:15:00,1288,-132,142,74,7,3,6,-36,43,31.7,31.87,1018.15,1,0
2022-11-02 15:15:00,1038,27,-13,98,-14,16,7,-34,45,31.7,31.87,1018.15,1,0
2022-11-02 15:15:00,1038,27,-13,98,-14,16,7,-34,45,31.7,31.87,1018.15,1,0
2022-11-02 15:15:00,886,-72,-37,72,-12,21,7,-37,50,31.7,31.87,1018.15,1,0
2022-11-02 15:15:00,886,-72,-37,72,-12,21,7,-37,50,31.7,31.87,1018.15,1,0
2022-11-02 15:15:01,942,-5,-140,75,-8,6,7,-35,60,31.7,31.87,1018.15,1,0
2022-11-02 15:15:01,942,-5,-140,75,-8,6,7,-35,60,31.7,31.87,1018.15,1,0
2022-11-02 15:15:01,976,-48,-103,71,-8,-2,5,-34,66,31.7,31.87,1018.15,1,0
2022-11-02 15:15:01,976,-48,-103,71,-8,-2,5,-34,66,31.7,31.87,1018.15,1,0
2022-11-02 15:15:01,1251,56,-259,38,-19,-4,7,-31,66,31.7,31.87,1018.15,1,0
2022-11-02 15:15:01,1251,56,-259,38,-19,-4,7,-31,66,31.7,31.87,1018.15,1,0
2022-11-02 15:15:01,921,-199,48,18,-8,-11,7,-27,74,31.7,31.87,1018.15,1,0
2022-11-02 15:15:01,921,-199,48,18,-8,-11,7,-27,74,31.7,31.87,1018.15,1,0
2022-11-02 15:15:01,1011,-142,78,51,8,4,9,-28,75,31.7,31.87,1018.15,1,0
2022-11-02 15:15:01,1011,-142,78,51,8,4,9,-28,75,31.7,31.87,1018.15,1,0
2022-11-02 15:15:01,936,76,23,-12,11,-18,10,-25,80,31.7,31.87,1018.15,1,0
2022-11-02 15:15:01,936,76,23,-12,11,-18,10,-25,80,31.7,31.87,1018.15,1,0
2022-11-02 15:15:01,995,224,-9,22,4,-10,10,-24,82,31.7,31.91,1018.13,1,0
2022-11-02 15:15:01,995,224,-9,22,4,-10,10,-24,82,31.7,31.91,1018.13,1,0
2022-11-02 15:15:01,1011,93,-1,-7,12,11,10,-25,79,31.7,31.91,1018.13,1,0
2022-11-02 15:15:01,1011,93,-1,-7,12,11,10,-25,79,31.7,31.91,1018.13,1,0
2022-11-02 15:15:01,1050,220,-68,0,6,-9,10,-25,87,31.7,31.91,1018.13,1,0
2022-11-02 15:15:01,1050,220,-68,0,6,-9,10,-25,87,31.7,31.91,1018.13,1,0
2022-11-02 15:15:01,1448,9,351,-1,10,-12,11,-22,82,31.7,31.91,1018.13,1,0
2022-11-02 15:15:01,1448,9,351,-1,10,-12,11,-22,82,31.7,31.91,1018.13,1,0
2022-11-02 15:15:02,765,-54,-93,-16,-11,21,12,-23,86,31.7,31.91,1018.13,1,0
2022-11-02 15:15:02,765,-54,-93,-16,-11,21,12,-23,86,31.7,31.91,1018.13,1,0
2022-11-02 15:15:02,938,-124,-81,17,-12,0,13,-23,87,31.7,31.91,1018.13,1,0
2022-11-02 15:15:02,938,-124,-81,17,-12,0,13,-23,87,31.7,31.91,1018.13,1,0
2022-11-02 15:15:02,878,40,-160,6,-13,5,14,-24,86,31.7,31.91,1018.13,1,0
2022-11-02 15:15:02,878,40,-160,6,-13,5,14,-24,86,31.7,31.91,1018.13,1,0
2022-11-02 15:15:02,1020,58,-138,9,-3,-4,14,-23,83,31.7,31.91,1018.13,1,0
2022-11-02 15:15:02,1020,58,-138,9,-3,-4,14,-23,83,31.7,31.91,1018.13,1,0
2022-11-02 15:15:02,1487,42,-70,-5,-23,16,15,-23,87,31.7,31.91,1018.13,1,0
2022-11-02 15:15:02,1487,42,-70,-5,-23,16,15,-23,87,31.7,31.91,1018.13,1,0
2022-11-02 15:15:02,605,130,21,-26,-1,-10,16,-21,81,31.7,31.91,1018.13,1,0
2022-11-02 15:15:02,605,130,21,-26,-1,-10,16,-21,81,31.7,31.91,1018.13,1,0
2022-11-02 15:15:02,1036,-204,37,-33,6,1,20,-23,91,31.7,31.9,1018.14,1,0
2022-11-02 15:15:02,1036,-204,37,-33,6,1,20,-23,91,31.7,31.9,1018.14,1,0
2022-11-02 15:15:02,864,216,-35,-28,0,-7,21,-25,86,31.7,31.9,1018.14,1,0
2022-11-02 15:15:02,864,216,-35,-28,0,-7,21,-25,86,31.7,31.9,1018.14,1,0
2022-11-02 15:15:02,911,85,-21,-39,6,10,21,-25,86,31.7,31.9,1018.14,1,0
2022-11-02 15:15:02,911,85,-21,-39,6,10,21,-25,86,31.7,31.9,1018.14,1,0
2022-11-02 15:15:02,1221,-162,46,-32,10,-12,25,-26,83,31.7,31.9,1018.14,1,0
2022-11-02 15:15:02,1221,-162,46,-32,10,-12,25,-26,83,31.7,31.9,1018.14,1,0
2022-11-02 15:15:03,915,-175,-46,-60,7,-19,23,-30,76,31.7,31.9,1018.14,1,0
2022-11-02 15:15:03,915,-175,-46,-60,7,-19,23,-30,76,31.7,31.9,1018.14,1,0
2022-11-02 15:15:03,1052,-21,-58,-75,-2,7,30,-29,76,31.7,31.9,1018.14,1,0
2022-11-02 15:15:03,1052,-21,-58,-75,-2,7,30,-29,76,31.7,31.9,1018.14,1,0
2022-11-02 15:15:03,868,-72,-130,-54,1,10,27,-35,71,31.7,31.9,1018.14,1,0
2022-11-02 15:15:03,868,-72,-130,-54,1,10,27,-35,71,31.7,31.9,1018.14,1,0
2022-11-02 15:15:03,972,-7,-210,-63,5,-5,26,-32,69,31.7,31.9,1018.14,1,0
2022-11-02 15:15:03,972,-7,-210,-63,5,-5,26,-32,69,31.7,31.9,1018.14,1,0
2022-11-02 15:15:03,1266,-5,-126,-25,-11,1,26,-35,62,31.7,31.9,1018.14,1,0
2022-11-02 15:15:03,1266,-5,-126,-25,-11,1,26,-35,62,31.7,31.9,1018.14,1,0
2022-11-02 15:15:03,960,-126,52,-53,9,-12,32,-35,53,31.7,31.9,1018.14,1,0
2022-11-02 15:15:03,960,-126,52,-53,9,-12,32,-35,53,31.7,31.9,1018.14,1,0
2022-11-02 15:15:03,1026,-72,101,-92,11,1,31,-39,51,31.7,31.9,1018.17,1,0
2022-11-02 15:15:03,1026,-72,101,-92,11,1,31,-39,51,31.7,31.9,1018.17,1,0
2022-11-02 15:15:03,835,103,42,-78,9,-12,32,-36,45,31.7,31.9,1018.17,1,0
2022-11-02 15:15:03,835,103,42,-78,9,-12,32,-36,45,31.7,31.9,1018.17,1,0
2022-11-02 15:15:03,1046,181,-19,-86,4,3,32,-35,45,31.7,31.9,1018.17,1,0
2022-11-02 15:15:03,1046,181,-19,-86,4,3,32,-35,45,31.7,31.9,1018.17,1,0
2022-11-02 15:15:03,952,173,-60,-52,-9,5,34,-32,36,31.7,31.9,1018.17,1,0
2022-11-02 15:15:03,952,173,-60,-52,-9,5,34,-32,36,31.7,31.9,1018.17,1,0
2022-11-02 15:15:04,1341,-62,-99,-54,-17,-6,34,-33,31,31.7,31.9,1018.17,1,0
2022-11-02 15:15:04,1341,-62,-99,-54,-17,-6,34,-33,31,31.7,31.9,1018.17,1,0
2022-11-02 15:15:04,728,-160,-9,-47,-9,-8,38,-29,28,31.7,31.9,1018.17,1,0
2022-11-02 15:15:04,728,-160,-9,-47,-9,-8,38,-29,28,31.7,31.9,1018.17,1,0
2022-11-02 15:15:04,1208,101,-23,-26,-14,10,37,-24,28,31.7,31.9,1018.17,1,0
2022-11-02 15:15:04,1208,101,-23,-26,-14,10,37,-24,28,31.7,31.9,1018.17,1,0
2022-11-02 15:15:04,827,-37,-128,4,-20,10,35,-22,17,31.7,31.9,1018.17,1,0
2022-11-02 15:15:04,827,-37,-128,4,-20,10,35,-22,17,31.7,31.9,1018.17,1,0
2022-11-02 15:15:04,866,58,-240,12,-10,-3,34,-25,17,31.7,31.9,1018.17,1,0
2022-11-02 15:15:04,866,58,-240,12,-10,-3,34,-25,17,31.7,31.9,1018.17,1,0
2022-11-02 15:15:04,1253,17,-343,-6,-8,4,33,-27,13,31.7,31.9,1018.17,1,0
2022-11-02 15:15:04,1253,17,-343,-6,-8,4,33,-27,13,31.7,31.9,1018.17,1,0
2022-11-02 15:15:04,1036,-320,13,-1,-9,7,34,-27,19,31.7,31.9,1018.11,1,0
2022-11-02 15:15:04,1036,-320,13,-1,-9,7,34,-27,19,31.7,31.9,1018.11,1,0
2022-11-02 15:15:04,1028,-19,68,21,18,3,31,-29,19,31.7,31.9,1018.11,1,0
2022-11-02 15:15:04,1028,-19,68,21,18,3,31,-29,19,31.7,31.9,1018.11,1,0
2022-11-02 15:15:04,966,124,56,-31,17,-18,30,-27,21,31.7,31.9,1018.11,1,0
2022-11-02 15:15:04,966,124,56,-31,17,-18,30,-27,21,31.7,31.9,1018.11,1,0
2022-11-02 15:15:04,929,122,-76,-9,10,2,32,-27,15,31.7,31.9,1018.11,1,0
2022-11-02 15:15:04,929,122,-76,-9,10,2,32,-27,15,31.7,31.9,1018.11,1,0
2022-11-02 15:15:05,1042,13,-23,-30,2,13,32,-28,14,31.7,31.9,1018.11,1,0
2022-11-02 15:15:05,1042,13,-23,-30,2,13,32,-28,14,31.7,31.9,1018.11,1,0
2022-11-02 15:15:05,1434,-19,-76,-27,-2,-10,32,-28,17,31.7,31.9,1018.11,1,0
2022-11-02 15:15:05,1434,-19,-76,-27,-2,-10,32,-28,17,31.7,31.9,1018.11,1,0
2022-11-02 15:15:05,802,-154,-39,-8,-5,-17,32,-24,14,31.7,31.9,1018.11,1,0
2022-11-02 15:15:05,802,-154,-39,-8,-5,-17,32,-24,14,31.7,31.9,1018.11,1,0
2022-11-02 15:15:05,1214,60,-3,-11,-7,13,34,-26,13,31.7,31.9,1018.11,1,0
2022-11-02 15:15:05,1214,60,-3,-11,-7,13,34,-26,13,31.7,31.9,1018.11,1,0
2022-11-02 15:15:05,774,-27,-138,15,-13,1,33,-23,13,31.7,31.9,1018.11,1,0
2022-11-02 15:15:05,774,-27,-138,15,-13,1,33,-23,13,31.7,31.9,1018.11,1,0
2022-11-02 15:15:05,864,0,-206,14,4,-8,32,-23,8,31.7,31.9,1018.11,1,0
2022-11-02 15:15:05,864,0,-206,14,4,-8,32,-23,8,31.7,31.9,1018.11,1,0
2022-11-02 15:15:05,1260,-144,-214,-7,0,-3,33,-23,13,31.7,31.91,1018.13,1,0
2022-11-02 15:15:05,1260,-144,-214,-7,0,-3,33,-23,13,31.7,31.91,1018.13,1,0
2022-11-02 15:15:05,1132,-335,124,-11,8,3,33,-24,9,31.7,31.91,1018.13,1,0
2022-11-02 15:15:05,1132,-335,124,-11,8,3,33,-24,9,31.7,31.91,1018.13,1,0
2022-11-02 15:15:05,1079,-17,64,-22,15,-3,32,-23,9,31.7,31.91,1018.13,1,0
2022-11-02 15:15:05,1079,-17,64,-22,15,-3,32,-23,9,31.7,31.91,1018.13,1,0
2022-11-02 15:15:05,929,95,40,-81,11,-14,31,-17,5,31.7,31.91,1018.13,1,0
2022-11-02 15:15:05,929,95,40,-81,11,-14,31,-17,5,31.7,31.91,1018.13,1,0
2022-11-02 15:15:06,936,171,-70,-64,7,5,32,-12,6,31.7,31.91,1018.13,1,0
2022-11-02 15:15:06,936,171,-70,-64,7,5,32,-12,6,31.7,31.91,1018.13,1,0
2022-11-02 15:15:06,1016,130,-66,-46,-4,16,32,-7,3,31.7,31.91,1018.13,1,0
2022-11-02 15:15:06,1016,130,-66,-46,-4,16,32,-7,3,31.7,31.91,1018.13,1,0
2022-11-02 15:15:06,1301,-193,-95,-49,-9,-5,34,-4,4,31.7,31.91,1018.13,1,0
2022-11-02 15:15:06,1301,-193,-95,-49,-9,-5,34,-4,4,31.7,31.91,1018.13,1,0
2022-11-02 15:15:06,767,-228,173,-68,4,-7,32,0,-1,31.7,31.91,1018.13,1,0
2022-11-02 15:15:06,767,-228,173,-68,4,-7,32,0,-1,31.7,31.91,1018.13,1,0
2022-11-02 15:15:06,1268,105,-23,-66,-4,18,32,4,0,31.7,31.91,1018.13,1,0
2022-11-02 15:15:06,1268,105,-23,-66,-4,18,32,4,0,31.7,31.91,1018.13,1,0
2022-11-02 15:15:06,792,-39,-150,-22,-15,2,30,12,0,31.7,31.91,1018.13,1,0
2022-11-02 15:15:06,792,-39,-150,-22,-15,2,30,12,0,31.7,31.91,1018.13,1,0
2022-11-02 15:15:06,917,-11,-216,-20,0,3,26,12,1,31.7,31.93,1018.14,1,0
2022-11-02 15:15:06,917,-11,-216,-20,0,3,26,12,1,31.7,31.93,1018.14,1,0
2022-11-02 15:15:06,1194,-138,-134,-18,8,0,26,15,-1,31.7,31.93,1018.14,1,0
2022-11-02 15:15:06,1194,-138,-134,-18,8,0,26,15,-1,31.7,31.93,1018.14,1,0
2022-11-02 15:15:06,1052,-320,-23,-39,-5,4,24,17,2,31.7,31.93,1018.14,1,0
2022-11-02 15:15:06,1052,-320,-23,-39,-5,4,24,17,2,31.7,31.93,1018.14,1,0
2022-11-02 15:15:06,970,97,230,-48,26,2,26,17,1,31.7,31.93,1018.14,1,0
2022-11-02 15:15:06,970,97,230,-48,26,2,26,17,1,31.7,31.93,1018.14,1,0
2022-11-02 15:15:07,1018,27,-13,-91,4,-14,27,24,-1,31.7,31.93,1018.14,1,0
2022-11-02 15:15:07,1018,27,-13,-91,4,-14,27,24,-1,31.7,31.93,1018.14,1,0
2022-11-02 15:15:07,948,169,-23,-74,3,0,27,27,-1,31.7,31.93,1018.14,1,0
2022-11-02 15:15:07,948,169,-23,-74,3,0,27,27,-1,31.7,31.93,1018.14,1,0
2022-11-02 15:15:07,936,232,-85,-51,-3,8,28,38,2,31.7,31.93,1018.14,1,0
2022-11-02 15:15:07,936,232,-85,-51,-3,8,28,38,2,31.7,31.93,1018.14,1,0
2022-11-02 15:15:07,1085,-48,-93,-36,0,-4,26,43,4,31.7,31.93,1018.14,1,0
2022-11-02 15:15:07,1085,-48,-93,-36,0,-4,26,43,4,31.7,31.93,1018.14,1,0
2022-11-02 15:15:07,1391,-13,349,-70,17,-4,26,44,9,31.7,31.93,1018.14,1,0
2022-11-02 15:15:07,1391,-13,349,-70,17,-4,26,44,9,31.7,31.93,1018.14,1,0
2022-11-02 15:15:07,917,134,-68,-64,-8,16,26,54,10,31.7,31.93,1018.14,1,0
2022-11-02 15:15:07,917,134,-68,-64,-8,16,26,54,10,31.7,31.93,1018.14,1,0
2022-11-02 15:15:07,972,19,-105,-8,-16,4,27,54,16,31.7,31.91,1018.14,1,0
2022-11-02 15:15:07,972,19,-105,-8,-16,4,27,54,16,31.7,31.91,1018.14,1,0
2022-11-02 15:15:07,886,46,-193,9,-13,10,25,58,18,31.7,31.91,1018.14,1,0
2022-11-02 15:15:07,886,46,-193,9,-13,10,25,58,18,31.7,31.91,1018.14,1,0
2022-11-02 15:15:07,1059,-117,-111,18,-7,10,25,56,16,31.7,31.91,1018.14,1,0
2022-11-02 15:15:07,1059,-117,-111,18,-7,10,25,56,16,31.7,31.91,1018.14,1,0
2022-11-02 15:15:07,1432,0,74,17,-2,13,24,56,14,31.7,31.91,1018.14,1,0
2022-11-02 15:15:07,1432,0,74,17,-2,13,24,56,14,31.7,31.91,1018.14,1,0
2022-11-02 15:15:08,622,353,-1,32,1,-13,26,57,14,31.7,31.91,1018.14,1,0
2022-11-02 15:15:08,622,353,-1,32,1,-13,26,57,14,31.7,31.91,1018.14,1,0
2022-11-02 15:15:08,1020,-115,-21,33,8,-10,23,53,11,31.7,31.91,1018.14,1,0
2022-11-02 15:15:08,1020,-115,-21,33,8,-10,23,53,11,31.7,31.91,1018.14,1,0
2022-11-02 15:15:08,929,154,-46,18,8,-6,22,52,10,31.7,31.91,1018.14,1,0
2022-11-02 15:15:08,929,154,-46,18,8,-6,22,52,10,31.7,31.91,1018.14,1,0
2022-11-02 15:15:08,952,115,-21,12,12,-1,22,51,6,31.7,31.91,1018.14,1,0
2022-11-02 15:15:08,952,115,-21,12,12,-1,22,51,6,31.7,31.91,1018.14,1,0
2022-11-02 15:15:08,1097,189,-13,0,7,-7,23,50,4,31.7,31.91,1018.14,1,0
2022-11-02 15:15:08,1097,189,-13,0,7,-7,23,50,4,31.7,31.91,1018.14,1,0
2022-11-02 15:15:08,1356,-23,277,1,5,-15,24,51,3,31.7,31.91,1018.14,1,0
2022-11-02 15:15:08,1356,-23,277,1,5,-15,24,51,3,31.7,31.91,1018.14,1,0
2022-11-02 15:15:08,810,-181,-107,-8,-12,2,23,54,5,31.7,31.94,1018.1,1,0
2022-11-02 15:15:08,810,-181,-107,-8,-12,2,23,54,5,31.7,31.94,1018.1,1,0
2022-11-02 15:15:08,1005,56,-76,15,-13,-2,22,54,5,31.7,31.94,1018.1,1,0
2022-11-02 15:15:08,1005,56,-76,15,-13,-2,22,54,5,31.7,31.94,1018.1,1,0
2022-11-02 15:15:08,897,-5,-132,21,-1,6,20,53,4,31.7,31.94,1018.1,1,0
2022-11-02 15:15:08,897,-5,-132,21,-1,6,20,53,4,31.7,31.94,1018.1,1,0
2022-11-02 15:15:08,958,19,-162,4,1,-5,18,54,-4,31.7,31.94,1018.1,1,0
2022-11-02 15:15:08,958,19,-162,4,1,-5,18,54,-4,31.7,31.94,1018.1,1,0
2022-11-02 15:15:09,1409,44,-134,-8,-18,5,20,55,-1,31.7,31.94,1018.1,1,0
2022-11-02 15:15:09,1409,44,-134,-8,-18,5,20,55,-1,31.7,31.94,1018.1,1,0
2022-11-02 15:15:09,732,-130,19,-36,0,-2,15,54,-1,31.7,31.94,1018.1,1,0
2022-11-02 15:15:09,732,-130,19,-36,0,-2,15,54,-1,31.7,31.94,1018.1,1,0
2022-11-02 15:15:09,1188,-242,39,-39,19,4,17,56,-1,31.7,31.94,1018.1,1,0
2022-11-02 15:15:09,1188,-242,39,-39,19,4,17,56,-1,31.7,31.94,1018.1,1,0
2022-11-02 15:15:09,839,279,-21,-54,-1,-13,16,59,0,31.7,31.94,1018.1,1,0
2022-11-02 15:15:09,839,279,-21,-54,-1,-13,16,59,0,31.7,31.94,1018.1,1,0
2022-11-02 15:15:09,960,54,-60,-34,1,13,14,66,4,31.7,31.94,1018.1,1,0
2022-11-02 15:15:09,960,54,-60,-34,1,13,14,66,4,31.7,31.94,1018.1,1,0
2022-11-02 15:15:09,1052,35,-9,-41,2,-1,18,67,13,31.7,31.94,1018.1,1,0
2022-11-02 15:15:09,1052,35,-9,-41,2,-1,18,67,13,31.7,31.94,1018.1,1,0
2022-11-02 15:15:09,1448,-144,195,-80,19,0,16,72,19,31.7,31.95,1018.09,1,0
2022-11-02 15:15:09,1448,-144,195,-80,19,0,16,72,19,31.7,31.95,1018.09,1,0
2022-11-02 15:15:09,878,46,-130,-93,-5,16,14,74,26,31.7,31.95,1018.09,1,0
2022-11-02 15:15:09,878,46,-130,-93,-5,16,14,74,26,31.7,31.95,1018.09,1,0
2022-11-02 15:15:09,940,-33,-136,-50,-3,2,13,80,34,31.7,31.95,1018.09,1,0
2022-11-02 15:15:09,940,-33,-136,-50,-3,2,13,80,34,31.7,31.95,1018.09,1,0
2022-11-02 15:15:09,864,-115,-167,-77,3,3,16,82,42,31.7,31.95,1018.09,1,0
2022-11-02 15:15:09,864,-115,-167,-77,3,3,16,82,42,31.7,31.95,1018.09,1,0
2022-11-02 15:15:10,1097,35,-37,-77,13,-9,17,83,51,31.7,31.95,1018.09,1,0
2022-11-02 15:15:10,1097,35,-37,-77,13,-9,17,83,51,31.7,31.95,1018.09,1,0
2022-11-02 15:15:10,1208,-353,72,-59,1,-7,16,81,63,31.7,31.95,1018.09,1,0
2022-11-02 15:15:10,1208,-353,72,-59,1,-7,16,81,63,31.7,31.95,1018.09,1,0
2022-11-02 15:15:10,1077,-56,210,-86,11,-3,13,81,68,31.7,31.95,1018.09,1,0
2022-11-02 15:15:10,1077,-56,210,-86,11,-3,13,81,68,31.7,31.95,1018.09,1,0
2022-11-02 15:15:10,936,-91,105,-125,2,-15,11,75,79,31.7,31.95,1018.09,1,0
2022-11-02 15:15:10,936,-91,105,-125,2,-15,11,75,79,31.7,31.95,1018.09,1,0
2022-11-02 15:15:10,1052,-46,62,-152,0,5,11,71,87,31.7,31.95,1018.09,1,0
2022-11-02 15:15:10,1052,-46,62,-152,0,5,11,71,87,31.7,31.95,1018.09,1,0
2022-11-02 15:15:10,1028,187,40,-113,-1,7,11,60,100,31.7,31.95,1018.09,1,0
2022-11-02 15:15:10,1028,187,40,-113,-1,7,11,60,100,31.7,31.95,1018.09,1,0
2022-11-02 15:15:10,970,-121,-62,-112,-5,8,10,44,109,31.7,31.95,1018.14,1,0
2022-11-02 15:15:10,970,-121,-62,-112,-5,8,10,44,109,31.7,31.95,1018.14,1,0
2022-11-02 15:15:10,1056,-144,402,-171,29,4,11,33,110,31.7,31.95,1018.14,1,0
2022-11-02 15:15:10,1056,-144,402,-171,29,4,11,33,110,31.7,31.95,1018.14,1,0
2022-11-02 15:15:10,1225,-29,52,-140,4,15,12,15,120,31.7,31.95,1018.14,1,0
2022-11-02 15:15:10,1225,-29,52,-140,4,15,12,15,120,31.7,31.95,1018.14,1,0
2022-11-02 15:15:10,897,-5,-21,-120,-7,3,11,-2,120,31.7,31.95,1018.14,1,0
2022-11-02 15:15:10,897,-5,-21,-120,-7,3,11,-2,120,31.7,31.95,1018.14,1,0
2022-11-02 15:15:11,895,-19,-204,-96,3,0,9,-16,115,31.7,31.95,1018.14,1,0
2022-11-02 15:15:11,895,-19,-204,-96,3,0,9,-16,115,31.7,31.95,1018.14,1,0
2022-11-02 15:15:11,1040,-70,-281,-52,-5,-2,11,-26,106,31.7,31.95,1018.14,1,0
2022-11-02 15:15:11,1040,-70,-281,-52,-5,-2,11,-26,106,31.7,31.95,1018.14,1,0
2022-11-02 15:15:11,1604,-226,-23,-55,-15,29,10,-36,102,31.7,31.95,1018.14,1,0
2022-11-02 15:15:11,1604,-226,-23,-55,-15,29,10,-36,102,31.7,31.95,1018.14,1,0
2022-11-02 15:15:11,550,115,158,-51,10,-20,11,-38,96,31.7,31.95,1018.14,1,0
2022-11-02 15:15:11,550,115,158,-51,10,-20,11,-38,96,31.7,31.95,1018.14,1,0
2022-11-02 15:15:11,1147,-160,83,-62,12,-9,12,-38,96,31.7,31.95,1018.14,1,0
2022-11-02 15:15:11,1147,-160,83,-62,12,-9,12,-38,96,31.7,31.95,1018.14,1,0
2022-11-02 15:15:11,915,197,5,-38,11,-15,14,-43,90,31.7,31.95,1018.14,1,0
2022-11-02 15:15:11,915,197,5,-38,11,-15,14,-43,90,31.7,31.95,1018.14,1,0
2022-11-02 15:15:11,989,126,-27,-28,10,-4,14,-46,82,31.7,31.96,1018.18,1,0
2022-11-02 15:15:11,989,126,-27,-28,10,-4,14,-46,82,31.7,31.96,1018.18,1,0
2022-11-02 15:15:11,1057,87,-25,-22,-8,3,15,-44,84,31.7,31.96,1018.18,1,0
2022-11-02 15:15:11,1057,87,-25,-22,-8,3,15,-44,84,31.7,31.96,1018.18,1,0
2022-11-02 15:15:11,1579,9,44,-18,3,-11,14,-46,83,31.7,31.96,1018.18,1,0
2022-11-02 15:15:11,1579,9,44,-18,3,-11,14,-46,83,31.7,31.96,1018.18,1,0
2022-11-02 15:15:11,651,-160,-25,-1,-11,-9,18,-44,77,31.7,31.96,1018.18,1,0
2022-11-02 15:15:11,651,-160,-25,-1,-11,-9,18,-44,77,31.7,31.96,1018.18,1,0
2022-11-02 15:15:12,1151,60,11,23,0,10,21,-45,76,31.7,31.96,1018.18,1,0
2022-11-02 15:15:12,1151,60,11,23,0,10,21,-45,76,31.7,31.96,1018.18,1,0
2022-11-02 15:15:12,874,-60,-70,34,-14,7,19,-44,76,31.7,31.96,1018.18,1,0
2022-11-02 15:15:12,874,-60,-70,34,-14,7,19,-44,76,31.7,31.96,1018.18,1,0
2022-11-02 15:15:12,851,33,-175,31,-3,-4,22,-42,85,31.7,31.96,1018.18,1,0
2022-11-02 15:15:12,851,33,-175,31,-3,-4,22,-42,85,31.7,31.96,1018.18,1,0
2022-11-02 15:15:12,1282,-78,-224,7,-17,13,24,-39,79,31.7,31.96,1018.18,1,0
2022-11-02 15:15:12,1282,-78,-224,7,-17,13,24,-39,79,31.7,31.96,1018.18,1,0
2022-11-02 15:15:12,962,-220,165,1,4,4,24,-36,84,31.7,31.96,1018.18,1,0
2022-11-02 15:15:12,962,-220,165,1,4,4,24,-36,84,31.7,31.96,1018.18,1,0
2022-11-02 15:15:12,1007,3,50,28,12,-1,24,-40,86,31.7,31.96,1018.18,1,0
2022-11-02 15:15:12,1007,3,50,28,12,-1,24,-40,86,31.7,31.96,1018.18,1,0
2022-11-02 15:15:12,894,136,21,2,4,-15,22,-35,85,31.7,31.99,1018.16,1,0
2022-11-02 15:15:12,894,136,21,2,4,-15,22,-35,85,31.7,31.99,1018.16,1,0
2022-11-02 15:15:12,952,130,-11,6,9,8,23,-33,91,31.7,31.99,1018.16,1,0
2022-11-02 15:15:12,952,130,-11,6,9,8,23,-33,91,31.7,31.99,1018.16,1,0
2022-11-02 15:15:12,1165,115,7,-9,-9,11,24,-32,88,31.7,31.99,1018.16,1,0
2022-11-02 15:15:12,1165,115,7,-9,-9,11,24,-32,88,31.7,31.99,1018.16,1,0
2022-11-02 15:15:12,1397,146,242,15,-3,-11,22,-35,88,31.7,31.99,1018.16,1,0
2022-11-02 15:15:12,1397,146,242,15,-3,-11,22,-35,88,31.7,31.99,1018.16,1,0
2022-11-02 15:15:13,925,-54,-40,73,-12,0,25,-32,84,31.7,31.99,1018.16,1,0
2022-11-02 15:15:13,925,-54,-40,73,-12,0,25,-32,84,31.7,31.99,1018.16,1,0
2022-11-02 15:15:13,1042,74,-19,117,-16,-1,26,-26,89,31.7,31.99,1018.16,1,0
2022-11-02 15:15:13,1042,74,-19,117,-16,-1,26,-26,89,31.7,31.99,1018.16,1,0
2022-11-02 15:15:13,892,-17,-42,108,-15,0,29,-17,94,31.7,31.99,1018.16,1,0
2022-11-02 15:15:13,892,-17,-42,108,-15,0,29,-17,94,31.7,31.99,1018.16,1,0
2022-11-02 15:15:13,942,-80,-40,68,1,-7,30,-8,97,31.7,31.99,1018.16,1,0
2022-11-02 15:15:13,942,-80,-40,68,1,-7,30,-8,97,31.7,31.99,1018.16,1,0
2022-11-02 15:15:13,1231,290,-185,43,-20,-12,29,-2,100,31.7,31.99,1018.16,1,0
2022-11-02 15:15:13,1231,290,-185,43,-20,-12,29,-2,100,31.7,31.99,1018.16,1,0
2022-11-02 15:15:13,786,-160,126,65,0,3,31,1,98,31.7,31.99,1018.16,1,0
2022-11-02 15:15:13,786,-160,126,65,0,3,31,1,98,31.7,31.99,1018.16,1,0
2022-11-02 15:15:13,1032,-253,21,42,19,-6,34,8,98,31.7,31.99,1018.16,1,0
2022-11-02 15:15:13,1032,-253,21,42,19,-6,34,8,98,31.7,31.99,1018.16,1,0
2022-11-02 15:15:13,884,316,-7,6,11,-18,32,14,97,31.7,31.99,1018.16,1,0
2022-11-02 15:15:13,884,316,-7,6,11,-18,32,14,97,31.7,31.99,1018.16,1,0
2022-11-02 15:15:13,976,70,7,21,21,4,33,16,99,31.7,31.99,1018.16,1,0
2022-11-02 15:15:13,976,70,7,21,21,4,33,16,99,31.7,31.99,1018.16,1,0
2022-11-02 15:15:13,1128,220,-42,1,-10,3,30,19,106,31.7,31.99,1018.16,1,0
2022-11-02 15:15:13,1128,220,-42,1,-10,3,30,19,106,31.7,31.99,1018.16,1,0
2022-11-02 15:15:13,1231,27,333,18,0,-10,33,17,102,31.7,31.99,1018.16,1,0
2022-11-02 15:15:13,1231,27,333,18,0,-10,33,17,102,31.7,31.99,1018.16,1,0
2022-11-02 15:15:14,1013,29,-31,52,-21,13,33,22,100,31.7,31.99,1018.16,1,0
2022-11-02 15:15:14,1013,29,-31,52,-21,13,33,22,100,31.7,31.99,1018.16,1,0
2022-11-02 15:15:14,921,-52,-44,108,-21,0,35,25,98,31.7,31.99,1018.16,1,0
2022-11-02 15:15:14,921,-52,-44,108,-21,0,35,25,98,31.7,31.99,1018.16,1,0
2022-11-02 15:15:14,882,-17,-81,82,-5,-1,37,34,95,31.7,31.99,1018.16,1,0
2022-11-02 15:15:14,882,-17,-81,82,-5,-1,37,34,95,31.7,31.99,1018.16,1,0
2022-11-02 15:15:14,1069,-119,-40,44,6,-5,37,38,91,31.7,31.99,1018.16,1,0
2022-11-02 15:15:14,1069,-119,-40,44,6,-5,37,38,91,31.7,31.99,1018.16,1,0
2022-11-02 15:15:14,1383,195,-46,23,-23,0,36,44,86,31.7,31.99,1018.16,1,0
2022-11-02 15:15:14,1383,195,-46,23,-23,0,36,44,86,31.7,31.99,1018.16,1,0
2022-11-02 15:15:14,704,87,97,26,3,0,39,47,83,31.7,32,1018.14,1,0
2022-11-02 15:15:14,704,87,97,26,3,0,39,47,83,31.7,32,1018.14,1,0
2022-11-02 15:15:14,1071,-288,-11,-1,17,-9,40,46,76,31.7,32,1018.14,1,0
2022-11-02 15:15:14,1071,-288,-11,-1,17,-9,40,46,76,31.7,32,1018.14,1,0
2022-11-02 15:15:14,866,269,-25,-18,17,-13,41,46,79,31.7,32,1018.14,1,0
2022-11-02 15:15:14,866,269,-25,-18,17,-13,41,46,79,31.7,32,1018.14,1,0
2022-11-02 15:15:14,960,158,-21,-8,22,1,36,50,79,31.7,32,1018.14,1,0
2022-11-02 15:15:14,960,158,-21,-8,22,1,36,50,79,31.7,32,1018.14,1,0
2022-11-02 15:15:14,1108,269,-1,4,12,-9,35,47,82,31.7,32,1018.14,1,0
2022-11-02 15:15:14,1108,269,-1,4,12,-9,35,47,82,31.7,32,1018.14,1,0
2022-11-02 15:15:15,1229,-115,234,5,5,-19,36,46,88,31.7,32,1018.14,1,0
2022-11-02 15:15:15,1229,-115,234,5,5,-19,36,46,88,31.7,32,1018.14,1,0
2022-11-02 15:15:15,1056,-78,17,-20,-6,16,34,50,91,31.7,32,1018.14,1,0
2022-11-02 15:15:15,1056,-78,17,-20,-6,16,34,50,91,31.7,32,1018.14,1,0
2022-11-02 15:15:15,854,-29,-122,14,-16,2,34,49,86,31.7,32,1018.14,1,0
2022-11-02 15:15:15,854,-29,-122,14,-16,2,34,49,86,31.7,32,1018.14,1,0
2022-11-02 15:15:15,919,-42,-154,1,-3,-2,36,49,85,31.7,32,1018.14,1,0
2022-11-02 15:15:15,919,-42,-154,1,-3,-2,36,49,85,31.7,32,1018.14,1,0
2022-11-02 15:15:15,1149,-87,-91,0,0,-4,37,50,85,31.7,32,1018.14,1,0
2022-11-02 15:15:15,1149,-87,-91,0,0,-4,37,50,85,31.7,32,1018.14,1,0
2022-11-02 15:15:15,1436,-122,-7,-35,-12,18,38,47,80,31.7,32,1018.13,1,0
2022-11-02 15:15:15,1436,-122,-7,-35,-12,18,38,47,80,31.7,32,1018.13,1,0
2022-11-02 15:15:15,618,97,121,-47,-2,-1,37,46,83,31.7,32,1018.13,1,0
2022-11-02 15:15:15,618,97,121,-47,-2,-1,37,46,83,31.7,32,1018.13,1,0
2022-11-02 15:15:15,1075,-183,31,-80,8,-1,38,40,85,31.7,32,1018.13,1,0
2022-11-02 15:15:15,1075,-183,31,-80,8,-1,38,40,85,31.7,32,1018.13,1,0
2022-11-02 15:15:15,868,199,-64,-83,4,-2,39,40,89,31.7,32,1018.13,1,0
2022-11-02 15:15:15,868,199,-64,-83,4,-2,39,40,89,31.7,32,1018.13,1,0
2022-11-02 15:15:15,929,218,-113,-58,5,16,41,34,83,31.7,32,1018.13,1,0
2022-11-02 15:15:15,929,218,-113,-58,5,16,41,34,83,31.7,32,1018.13,1,0
2022-11-02 15:15:16,1108,21,-56,-24,10,-5,39,27,89,31.7,32,1018.13,1,0
2022-11-02 15:15:16,1108,21,-56,-24,10,-5,39,27,89,31.7,32,1018.13,1,0
2022-11-02 15:15:16,1196,-113,271,-51,18,-7,38,22,94,31.7,32,1018.13,1,0
2022-11-02 15:15:16,1196,-113,271,-51,18,-7,38,22,94,31.7,32,1018.13,1,0
2022-11-02 15:15:16,1071,21,-33,-64,4,20,36,22,91,31.7,32,1018.13,1,0
2022-11-02 15:15:16,1071,21,-33,-64,4,20,36,22,91,31.7,32,1018.13,1,0
2022-11-02 15:15:16,895,-70,-113,-15,-7,5,36,18,90,31.7,32,1018.13,1,0
2022-11-02 15:15:16,895,-70,-113,-15,-7,5,36,18,90,31.7,32,1018.13,1,0
2022-11-02 15:15:16,849,-54,-206,-26,-2,0,36,13,87,31.7,32,1018.13,1,0
2022-11-02 15:15:16,849,-54,-206,-26,-2,0,36,13,87,31.7,32,1018.13,1,0
2022-11-02 15:15:16,1245,-165,-93,-20,-5,-3,35,10,91,31.7,32.02,1018.16,1,0
2022-11-02 15:15:16,1245,-165,-93,-20,-5,-3,35,10,91,31.7,32.02,1018.16,1,0
2022-11-02 15:15:16,927,-259,66,-54,-1,0,37,11,86,31.7,32.02,1018.16,1,0
2022-11-02 15:15:16,927,-259,66,-54,-1,0,37,11,86,31.7,32.02,1018.16,1,0
2022-11-02 15:15:16,1073,-80,107,-57,15,5,35,8,81,31.7,32.02,1018.16,1,0
2022-11-02 15:15:16,1073,-80,107,-57,15,5,35,8,81,31.7,32.02,1018.16,1,0
2022-11-02 15:15:16,927,173,-11,-85,-3,-12,36,3,79,31.7,32.02,1018.16,1,0
2022-11-02 15:15:16,927,173,-11,-85,-3,-12,36,3,79,31.7,32.02,1018.16,1,0
2022-11-02 15:15:16,942,144,-42,-51,13,5,37,2,83,31.7,32.02,1018.16,1,0
2022-11-02 15:15:16,942,144,-42,-51,13,5,37,2,83,31.7,32.02,1018.16,1,0
2022-11-02 15:15:17,1028,85,-29,-33,-2,4,35,-4,77,31.7,32.02,1018.16,1,0
2022-11-02 15:15:17,1028,85,-29,-33,-2,4,35,-4,77,31.7,32.02,1018.16,1,0
2022-11-02 15:15:17,1536,-83,191,-28,9,0,35,-9,75,31.7,32.02,1018.16,1,0
2022-11-02 15:15:17,1536,-83,191,-28,9,0,35,-9,75,31.7,32.02,1018.16,1,0
2022-11-02 15:15:17,532,-115,-37,-54,-7,7,32,-6,70,31.7,32.02,1018.16,1,0
2022-11-02 15:15:17,532,-115,-37,-54,-7,7,32,-6,70,31.7,32.02,1018.16,1,0
2022-11-02 15:15:17,1100,19,-83,-12,-2,5,33,-5,70,31.7,32.02,1018.16,1,0
2022-11-02 15:15:17,1100,19,-83,-12,-2,5,33,-5,70,31.7,32.02,1018.16,1,0
2022-11-02 15:15:17,876,-148,-107,-13,-10,4,33,-5,70,31.7,32.02,1018.16,1,0
2022-11-02 15:15:17,876,-148,-107,-13,-10,4,33,-5,70,31.7,32.02,1018.16,1,0
2022-11-02 15:15:17,1040,-140,-31,-33,11,-7,31,-8,64,31.7,32.02,1018.13,1,0
2022-11-02 15:15:17,1040,-140,-31,-33,11,-7,31,-8,64,31.7,32.02,1018.13,1,0
2022-11-02 15:15:17,1208,-427,163,-39,18,5,31,-7,66,31.7,32.02,1018.13,1,0
2022-11-02 15:15:17,1208,-427,163,-39,18,5,31,-7,66,31.7,32.02,1018.13,1,0
2022-11-02 15:15:17,1296,-222,277,-91,15,14,29,-6,61,31.7,32.02,1018.13,1,0
2022-11-02 15:15:17,1296,-222,277,-91,15,14,29,-6,61,31.7,32.02,1018.13,1,0
2022-11-02 15:15:17,991,54,162,-121,8,-5,30,-9,60,31.7,32.02,1018.13,1,0
2022-11-02 15:15:17,991,54,162,-121,8,-5,30,-9,60,31.7,32.02,1018.13,1,0
2022-11-02 15:15:17,995,-128,144,-140,1,18,31,-11,56,31.7,32.02,1018.13,1,0
2022-11-02 15:15:17,995,-128,144,-140,1,18,31,-11,56,31.7,32.02,1018.13,1,0
2022-11-02 15:15:18,931,-115,95,-147,3,29,30,-13,50,31.7,32.02,1018.13,1,0
2022-11-02 15:15:18,931,-115,95,-147,3,29,30,-13,50,31.7,32.02,1018.13,1,0
2022-11-02 15:15:18,1182,-78,-39,-138,41,23,26,-15,47,31.7,32.02,1018.13,1,0
2022-11-02 15:15:18,1182,-78,-39,-138,41,23,26,-15,47,31.7,32.02,1018.13,1,0
2022-11-02 15:15:18,835,-130,-119,-95,2,-2,27,-14,40,31.7,32.02,1018.13,1,0
2022-11-02 15:15:18,835,-130,-119,-95,2,-2,27,-14,40,31.7,32.02,1018.13,1,0
2022-11-02 15:15:18,974,-42,-226,-74,1,-19,28,-13,36,31.7,32.02,1018.13,1,0
2022-11-02 15:15:18,974,-42,-226,-74,1,-19,28,-13,36,31.7,32.02,1018.13,1,0
2022-11-02 15:15:18,1018,-255,-212,-37,6,-21,28,-10,29,31.7,32.02,1018.13,1,0
2022-11-02 15:15:18,1018,-255,-212,-37,6,-21,28,-10,29,31.7,32.02,1018.13,1,0
2022-11-02 15:15:18,915,-253,-218,-54,-2,-3,31,-8,31,31.7,32.03,1018.11,1,0
2022-11-02 15:15:18,915,-253,-218,-54,-2,-3,31,-8,31,31.7,32.03,1018.11,1,0
2022-11-02 15:15:18,1212,-150,19,-43,-13,-2,31,-10,29,31.7,32.03,1018.11,1,0
2022-11-02 15:15:18,1212,-150,19,-43,-13,-2,31,-10,29,31.7,32.03,1018.11,1,0
2022-11-02 15:15:18,913,-7,208,-79,26,-22,28,-5,25,31.7,32.03,1018.11,1,0
2022-11-02 15:15:18,913,-7,208,-79,26,-22,28,-5,25,31.7,32.03,1018.11,1,0
2022-11-02 15:15:18,966,191,134,-99,17,-16,29,-2,25,31.7,32.03,1018.11,1,0
2022-11-02 15:15:18,966,191,134,-99,17,-16,29,-2,25,31.7,32.03,1018.11,1,0
2022-11-02 15:15:18,1016,91,-17,-96,10,1,33,4,22,31.7,32.03,1018.11,1,0
2022-11-02 15:15:18,1016,91,-17,-96,10,1,33,4,22,31.7,32.03,1018.11,1,0
2022-11-02 15:15:19,985,83,7,-98,9,-3,35,7,21,31.7,32.03,1018.11,1,0
2022-11-02 15:15:19,985,83,7,-98,9,-3,35,7,21,31.7,32.03,1018.11,1,0
2022-11-02 15:15:19,1007,175,-23,-68,-1,6,35,10,22,31.7,32.03,1018.11,1,0
2022-11-02 15:15:19,1007,175,-23,-68,-1,6,35,10,22,31.7,32.03,1018.11,1,0
2022-11-02 15:15:19,1212,115,-126,-37,-14,-20,35,12,24,31.7,32.03,1018.11,1,0
2022-11-02 15:15:19,1212,115,-126,-37,-14,-20,35,12,24,31.7,32.03,1018.11,1,0
2022-11-02 15:15:19,989,-212,314,-50,0,-14,36,14,24,31.7,32.03,1018.11,1,0
2022-11-02 15:15:19,989,-212,314,-50,0,-14,36,14,24,31.7,32.03,1018.11,1,0
2022-11-02 15:15:19,1192,111,27,-74,3,14,36,21,24,31.7,32.03,1018.11,1,0
2022-11-02 15:15:19,1192,111,27,-74,3,14,36,21,24,31.7,32.03,1018.11,1,0
2022-11-02 15:15:19,847,19,-121,-15,-12,2,37,24,22,31.7,32.03,1018.17,1,0
2022-11-02 15:15:19,847,19,-121,-15,-12,2,37,24,22,31.7,32.03,1018.17,1,0
2022-11-02 15:15:19,903,54,-222,-6,-11,6,37,25,19,31.7,32.03,1018.17,1,0
2022-11-02 15:15:19,903,54,-222,-6,-11,6,37,25,19,31.7,32.03,1018.17,1,0
2022-11-02 15:15:19,1134,-162,-107,14,0,-4,38,25,15,31.7,32.03,1018.17,1,0
2022-11-02 15:15:19,1134,-162,-107,14,0,-4,38,25,15,31.7,32.03,1018.17,1,0
2022-11-02 15:15:19,1374,-173,5,-8,-12,11,35,25,18,31.7,32.03,1018.17,1,0
2022-11-02 15:15:19,1374,-173,5,-8,-12,11,35,25,18,31.7,32.03,1018.17,1,0
2022-11-02 15:15:19,603,234,154,-20,9,-21,35,24,12,31.7,32.03,1018.17,1,0
2022-11-02 15:15:19,603,234,154,-20,9,-21,35,24,12,31.7,32.03,1018.17,1,0
2022-11-02 15:15:20,1132,-169,-11,-58,4,-5,34,27,13,31.7,32.03,1018.17,1,0
2022-11-02 15:15:20,1132,-169,-11,-58,4,-5,34,27,13,31.7,32.03,1018.17,1,0
2022-11-02 15:15:20,817,244,-21,-53,5,-7,35,32,9,31.7,32.03,1018.17,1,0
2022-11-02 15:15:20,817,244,-21,-53,5,-7,35,32,9,31.7,32.03,1018.17,1,0
2022-11-02 15:15:20,948,224,-64,-40,6,10,32,30,12,31.7,32.03,1018.17,1,0
2022-11-02 15:15:20,948,224,-64,-40,6,10,32,30,12,31.7,32.03,1018.17,1,0
2022-11-02 15:15:20,1028,105,-23,-5,8,0,32,36,17,31.7,32.03,1018.17,1,0
2022-11-02 15:15:20,1028,105,-23,-5,8,0,32,36,17,31.7,32.03,1018.17,1,0
2022-11-02 15:15:20,1442,126,142,-24,0,-14,33,40,16,31.7,32.03,1018.17,1,0
2022-11-02 15:15:20,1442,126,142,-24,0,-14,33,40,16,31.7,32.03,1018.17,1,0
2022-11-02 15:15:20,704,-122,-64,-2,-12,7,28,43,15,31.7,32.04,1018.17,1,0
2022-11-02 15:15:20,704,-122,-64,-2,-12,7,28,43,15,31.7,32.04,1018.17,1,0
2022-11-02 15:15:20,1007,25,-85,22,-16,0,29,44,11,31.7,32.04,1018.17,1,0
2022-11-02 15:15:20,1007,25,-85,22,-16,0,29,44,11,31.7,32.04,1018.17,1,0
2022-11-02 15:15:20,810,56,-163,18,-12,11,26,47,17,31.7,32.04,1018.17,1,0
2022-11-02 15:15:20,810,56,-163,18,-12,11,26,47,17,31.7,32.04,1018.17,1,0
2022-11-02 15:15:20,1065,-150,-93,10,-3,5,22,45,10,31.7,32.04,1018.17,1,0
2022-11-02 15:15:20,1065,-150,-93,10,-3,5,22,45,10,31.7,32.04,1018.17,1,0
2022-11-02 15:15:20,1245,247,-35,-11,-24,13,23,44,13,31.7,32.04,1018.17,1,0
2022-11-02 15:15:20,1245,247,-35,-11,-24,13,23,44,13,31.7,32.04,1018.17,1,0
2022-11-02 15:15:21,667,240,87,15,2,-11,18,41,9,31.7,32.04,1018.17,1,0
2022-11-02 15:15:21,667,240,87,15,2,-11,18,41,9,31.7,32.04,1018.17,1,0
2022-11-02 15:15:21,1095,-115,-21,0,15,-5,16,43,10,31.7,32.04,1018.17,1,0
2022-11-02 15:15:21,1095,-115,-21,0,15,-5,16,43,10,31.7,32.04,1018.17,1,0
2022-11-02 15:15:21,845,236,-60,14,12,-4,16,41,15,31.7,32.04,1018.17,1,0
2022-11-02 15:15:21,845,236,-60,14,12,-4,16,41,15,31.7,32.04,1018.17,1,0
2022-11-02 15:15:21,915,74,31,13,12,5,16,42,7,31.7,32.04,1018.17,1,0
2022-11-02 15:15:21,915,74,31,13,12,5,16,42,7,31.7,32.04,1018.17,1,0
2022-11-02 15:15:21,1184,265,-35,-7,-8,-6,13,41,12,31.7,32.04,1018.17,1,0
2022-11-02 15:15:21,1184,265,-35,-7,-8,-6,13,41,12,31.7,32.04,1018.17,1,0
2022-11-02 15:15:21,1032,-13,271,13,4,-17,12,42,9,31.7,32.05,1018.12,1,0
2022-11-02 15:15:21,1032,-13,271,13,4,-17,12,42,9,31.7,32.05,1018.12,1,0
2022-11-02 15:15:21,1196,9,-19,10,-1,4,10,43,15,31.7,32.05,1018.12,1,0
2022-11-02 15:15:21,1196,9,-19,10,-1,4,10,43,15,31.7,32.05,1018.12,1,0
2022-11-02 15:15:21,817,78,-109,53,-14,0,13,43,11,31.7,32.05,1018.12,1,0
2022-11-02 15:15:21,817,78,-109,53,-14,0,13,43,11,31.7,32.05,1018.12,1,0
2022-11-02 15:15:21,884,-83,-171,45,2,-2,12,43,7,31.7,32.05,1018.12,1,0
2022-11-02 15:15:21,884,-83,-171,45,2,-2,12,43,7,31.7,32.05,1018.12,1,0
2022-11-02 15:15:21,1223,-222,-68,16,5,7,10,37,0,31.7,32.05,1018.12,1,0
2022-11-02 15:15:21,1223,-222,-68,16,5,7,10,37,0,31.7,32.05,1018.12,1,0
2022-11-02 15:15:22,1403,9,97,50,-1,13,12,34,3,31.7,32.05,1018.12,1,0
2022-11-02 15:15:22,1403,9,97,50,-1,13,12,34,3,31.7,32.05,1018.12,1,0
2022-11-02 15:15:22,661,222,152,47,19,-3,12,27,1,31.7,32.05,1018.12,1,0
2022-11-02 15:15:22,661,222,152,47,19,-3,12,27,1,31.7,32.05,1018.12,1,0
2022-11-02 15:15:22,1005,126,-23,15,8,-14,13,27,5,31.7,32.05,1018.12,1,0
2022-11-02 15:15:22,1005,126,-23,15,8,-14,13,27,5,31.7,32.05,1018.12,1,0
2022-11-02 15:15:22,938,173,-29,30,16,0,12,25,8,31.7,32.05,1018.12,1,0
2022-11-02 15:15:22,938,173,-29,30,16,0,12,25,8,31.7,32.05,1018.12,1,0
2022-11-02 15:15:22,1040,-17,13,7,2,17,12,24,9,31.7,32.05,1018.12,1,0
2022-11-02 15:15:22,1040,-17,13,7,2,17,12,24,9,31.7,32.05,1018.12,1,0
2022-11-02 15:15:22,1317,64,-23,-5,-1,-16,12,24,9,31.7,32.04,1018.17,1,0
2022-11-02 15:15:22,1317,64,-23,-5,-1,-16,12,24,9,31.7,32.04,1018.17,1,0
2022-11-02 15:15:22,853,-62,121,14,-15,-6,12,22,5,31.7,32.04,1018.17,1,0
2022-11-02 15:15:22,853,-62,121,14,-15,-6,12,22,5,31.7,32.04,1018.17,1,0
2022-11-02 15:15:22,1237,124,-3,52,0,1,10,25,6,31.7,32.04,1018.17,1,0
2022-11-02 15:15:22,1237,124,-3,52,0,1,10,25,6,31.7,32.04,1018.17,1,0
2022-11-02 15:15:22,925,48,-64,89,-13,1,7,21,7,31.7,32.04,1018.17,1,0
2022-11-02 15:15:22,925,48,-64,89,-13,1,7,21,7,31.7,32.04,1018.17,1,0
2022-11-02 15:15:22,886,0,-33,122,0,-7,5,20,4,31.7,32.04,1018.17,1,0
2022-11-02 15:15:22,886,0,-33,122,0,-7,5,20,4,31.7,32.04,1018.17,1,0
2022-11-02 15:15:23,1016,-124,-3,106,15,-13,5,9,-1,31.7,32.04,1018.17,1,0
2022-11-02 15:15:23,1016,-124,-3,106,15,-13,5,9,-1,31.7,32.04,1018.17,1,0
2022-11-02 15:15:23,929,193,208,115,28,7,5,1,4,31.7,32.04,1018.17,1,0
2022-11-02 15:15:23,929,193,208,115,28,7,5,1,4,31.7,32.04,1018.17,1,0
2022-11-02 15:15:23,946,9,169,102,16,12,7,-7,8,31.7,32.04,1018.17,1,0
2022-11-02 15:15:23,946,9,169,102,16,12,7,-7,8,31.7,32.04,1018.17,1,0
2022-11-02 15:15:23,970,324,150,128,1,2,7,-17,8,31.7,32.04,1018.17,1,0
2022-11-02 15:15:23,970,324,150,128,1,2,7,-17,8,31.7,32.04,1018.17,1,0
2022-11-02 15:15:23,1005,19,212,108,-1,4,7,-22,14,31.7,32.04,1018.17,1,0
2022-11-02 15:15:23,1005,19,212,108,-1,4,7,-22,14,31.7,32.04,1018.17,1,0
2022-11-02 15:15:23,976,290,140,94,-3,2,7,-32,26,31.7,32.04,1018.17,1,0
2022-11-02 15:15:23,976,290,140,94,-3,2,7,-32,26,31.7,32.04,1018.17,1,0
2022-11-02 15:15:23,981,167,183,85,0,8,7,-35,38,31.7,32.07,1018.14,1,0
2022-11-02 15:15:23,981,167,183,85,0,8,7,-35,38,31.7,32.07,1018.14,1,0
2022-11-02 15:15:23,913,193,195,63,-5,-2,6,-33,41,31.7,32.07,1018.14,1,0
2022-11-02 15:15:23,913,193,195,63,-5,-2,6,-33,41,31.7,32.07,1018.14,1,0
2022-11-02 15:15:23,1364,-85,251,77,3,-14,6,-40,50,31.7,32.07,1018.14,1,0
2022-11-02 15:15:23,1364,-85,251,77,3,-14,6,-40,50,31.7,32.07,1018.14,1,0
2022-11-02 15:15:23,1061,83,1,76,-16,16,9,-38,52,31.7,32.07,1018.14,1,0
2022-11-02 15:15:23,1061,83,1,76,-16,16,9,-38,52,31.7,32.07,1018.14,1,0
2022-11-02 15:15:24,899,-158,-62,68,-12,22,9,-38,59,31.7,32.07,1018.14,1,0
2022-11-02 15:15:24,899,-158,-62,68,-12,22,9,-38,59,31.7,32.07,1018.14,1,0
2022-11-02 15:15:24,903,-62,-97,53,-13,13,7,-31,68,31.7,32.07,1018.14,1,0
2022-11-02 15:15:24,903,-62,-97,53,-13,13,7,-31,68,31.7,32.07,1018.14,1,0
2022-11-02 15:15:24,882,60,-206,47,-8,0,4,-33,68,31.7,32.07,1018.14,1,0
2022-11-02 15:15:24,882,60,-206,47,-8,0,4,-33,68,31.7,32.07,1018.14,1,0
2022-11-02 15:15:24,1106,-105,-158,33,-2,5,9,-30,71,31.7,32.07,1018.14,1,0
2022-11-02 15:15:24,1106,-105,-158,33,-2,5,9,-30,71,31.7,32.07,1018.14,1,0
2022-11-02 15:15:24,1218,83,-144,41,-13,-2,8,-28,76,31.7,32.07,1018.14,1,0
2022-11-02 15:15:24,1218,83,-144,41,-13,-2,8,-28,76,31.7,32.07,1018.14,1,0
2022-11-02 15:15:24,718,-85,115,16,-1,-14,10,-30,80,31.7,32.07,1018.14,1,0
2022-11-02 15:15:24,718,-85,115,16,-1,-14,10,-30,80,31.7,32.07,1018.14,1,0
2022-11-02 15:15:24,1057,-199,-35,31,13,-7,7,-27,81,31.7,32.03,1018.2,1,0
2022-11-02 15:15:24,1057,-199,-35,31,13,-7,7,-27,81,31.7,32.03,1018.2,1,0
2022-11-02 15:15:24,868,134,-39,3,14,-18,10,-24,87,31.7,32.03,1018.2,1,0
2022-11-02 15:15:24,868,134,-39,3,14,-18,10,-24,87,31.7,32.03,1018.2,1,0
2022-11-02 15:15:24,936,173,-19,-15,13,-3,13,-26,86,31.7,32.03,1018.2,1,0
2022-11-02 15:15:24,936,173,-19,-15,13,-3,13,-26,86,31.7,32.03,1018.2,1,0
2022-11-02 15:15:24,991,124,-23,-33,0,-4,11,-24,84,31.7,32.03,1018.2,1,0
2022-11-02 15:15:24,991,124,-23,-33,0,-4,11,-24,84,31.7,32.03,1018.2,1,0
2022-11-02 15:15:25,1575,3,89,-9,21,-24,12,-26,81,31.7,32.03,1018.2,1,0
2022-11-02 15:15:25,1575,3,89,-9,21,-24,12,-26,81,31.7,32.03,1018.2,1,0
2022-11-02 15:15:25,628,-316,-23,-38,-24,15,15,-29,84,31.7,32.03,1018.2,1,0
2022-11-02 15:15:25,628,-316,-23,-38,-24,15,15,-29,84,31.7,32.03,1018.2,1,0
2022-11-02 15:15:25,1067,5,-60,-33,-13,2,17,-26,86,31.7,32.03,1018.2,1,0
2022-11-02 15:15:25,1067,5,-60,-33,-13,2,17,-26,86,31.7,32.03,1018.2,1,0
2022-11-02 15:15:25,872,-144,-175,-19,-6,3,14,-27,86,31.7,32.03,1018.2,1,0
2022-11-02 15:15:25,872,-144,-175,-19,-6,3,14,-27,86,31.7,32.03,1018.2,1,0
2022-11-02 15:15:25,923,68,-214,-33,-6,-2,18,-31,78,31.7,32.03,1018.2,1,0
2022-11-02 15:15:25,923,68,-214,-33,-6,-2,18,-31,78,31.7,32.03,1018.2,1,0
2022-11-02 15:15:25,1610,-220,52,-21,0,20,19,-33,76,31.7,32.03,1018.2,1,0
2022-11-02 15:15:25,1610,-220,52,-21,0,20,19,-33,76,31.7,32.03,1018.2,1,0
2022-11-02 15:15:25,448,171,146,-68,-9,-12,21,-33,78,31.7,32.4,1018.21,1,0
2022-11-02 15:15:25,448,171,146,-68,-9,-12,21,-33,78,31.7,32.4,1018.21,1,0
2022-11-02 15:15:25,1044,-160,-23,-78,5,-16,22,-35,69,31.7,32.4,1018.21,1,0
2022-11-02 15:15:25,1044,-160,-23,-78,5,-16,22,-35,69,31.7,32.4,1018.21,1,0
2022-11-02 15:15:25,874,189,13,-91,16,-2,24,-33,68,31.7,32.4,1018.21,1,0
2022-11-02 15:15:25,874,189,13,-91,16,-2,24,-33,68,31.7,32.4,1018.21,1,0
2022-11-02 15:15:25,942,251,-37,-56,5,11,27,-38,59,31.7,32.4,1018.21,1,0
2022-11-02 15:15:25,942,251,-37,-56,5,11,27,-38,59,31.7,32.4,1018.21,1,0
2022-11-02 15:15:26,1048,175,-64,-17,-1,-3,28,-41,55,31.7,32.4,1018.21,1,0
2022-11-02 15:15:26,1048,175,-64,-17,-1,-3,28,-41,55,31.7,32.4,1018.21,1,0
2022-11-02 15:15:26,1462,60,325,-47,12,-17,26,-38,50,31.7,32.4,1018.21,1,0
2022-11-02 15:15:26,1462,60,325,-47,12,-17,26,-38,50,31.7,32.4,1018.21,1,0
2022-11-02 15:15:26,858,0,-25,-61,-4,17,33,-42,50,31.7,32.4,1018.21,1,0
2022-11-02 15:15:26,858,0,-25,-61,-4,17,33,-42,50,31.7,32.4,1018.21,1,0
2022-11-02 15:15:26,927,-21,-107,-2,-12,7,34,-35,47,31.7,32.4,1018.21,1,0
2022-11-02 15:15:26,927,-21,-107,-2,-12,7,34,-35,47,31.7,32.4,1018.21,1,0
2022-11-02 15:15:26,847,-25,-195,-6,-8,6,32,-36,42,31.7,32.4,1018.21,1,0
2022-11-02 15:15:26,847,-25,-195,-6,-8,6,32,-36,42,31.7,32.4,1018.21,1,0
2022-11-02 15:15:26,1138,-162,-138,-4,0,2,33,-35,40,31.7,32.4,1018.21,1,0
2022-11-02 15:15:26,1138,-162,-138,-4,0,2,33,-35,40,31.7,32.4,1018.21,1,0
2022-11-02 15:15:26,1356,-281,89,-29,-2,9,34,-38,38,31.7,31.22,1018.17,1,0
2022-11-02 15:15:26,1356,-281,89,-29,-2,9,34,-38,38,31.7,31.22,1018.17,1,0
2022-11-02 15:15:26,763,122,177,-45,4,-10,31,-39,39,31.7,31.22,1018.17,1,0
2022-11-02 15:15:26,763,122,177,-45,4,-10,31,-39,39,31.7,31.22,1018.17,1,0
2022-11-02 15:15:26,1024,-25,68,-82,2,-16,31,-35,35,31.7,31.22,1018.17,1,0
2022-11-02 15:15:26,1024,-25,68,-82,2,-16,31,-35,35,31.7,31.22,1018.17,1,0
2022-11-02 15:15:26,890,206,-91,-59,5,-5,33,-33,26,31.7,31.22,1018.17,1,0
2022-11-02 15:15:26,890,206,-91,-59,5,-5,33,-33,26,31.7,31.22,1018.17,1,0
2022-11-02 15:15:27,944,199,-128,-37,0,14,33,-28,23,31.7,31.22,1018.17,1,0
2022-11-02 15:15:27,944,199,-128,-37,0,14,33,-28,23,31.7,31.22,1018.17,1,0
2022-11-02 15:15:27,1239,40,-146,-23,0,-4,33,-27,21,31.7,31.22,1018.17,1,0
2022-11-02 15:15:27,1239,40,-146,-23,0,-4,33,-27,21,31.7,31.22,1018.17,1,0
2022-11-02 15:15:27,1036,-111,267,-20,5,-17,35,-25,22,31.7,31.22,1018.17,1,0
2022-11-02 15:15:27,1036,-111,267,-20,5,-17,35,-25,22,31.7,31.22,1018.17,1,0
2022-11-02 15:15:27,1223,263,-37,-32,4,19,36,-26,17,31.7,31.22,1018.17,1,0
2022-11-02 15:15:27,1223,263,-37,-32,4,19,36,-26,17,31.7,31.22,1018.17,1,0
2022-11-02 15:15:27,825,-103,-93,25,-11,6,36,-24,15,31.7,31.22,1018.17,1,0
2022-11-02 15:15:27,825,-103,-93,25,-11,6,36,-24,15,31.7,31.22,1018.17,1,0
2022-11-02 15:15:27,856,-42,-179,8,0,2,36,-26,14,31.7,31.22,1018.17,1,0
2022-11-02 15:15:27,856,-42,-179,8,0,2,36,-26,14,31.7,31.22,1018.17,1,0
2022-11-02 15:15:27,1194,-158,-107,-11,2,0,33,-28,17,31.7,32.09,1018.12,1,0
2022-11-02 15:15:27,1194,-158,-107,-11,2,0,33,-28,17,31.7,32.09,1018.12,1,0
2022-11-02 15:15:27,1272,-306,50,-23,3,4,36,-28,13,31.7,32.09,1018.12,1,0
2022-11-02 15:15:27,1272,-306,50,-23,3,4,36,-28,13,31.7,32.09,1018.12,1,0
2022-11-02 15:15:27,864,52,109,-43,2,2,32,-27,15,31.7,32.09,1018.12,1,0
2022-11-02 15:15:27,864,52,109,-43,2,2,32,-27,15,31.7,32.09,1018.12,1,0
2022-11-02 15:15:27,997,74,66,-92,8,-18,31,-23,8,31.7,32.09,1018.12,1,0
2022-11-02 15:15:27,997,74,66,-92,8,-18,31,-23,8,31.7,32.09,1018.12,1,0
2022-11-02 15:15:28,944,189,-48,-60,9,0,31,-17,3,31.7,32.09,1018.12,1,0
2022-11-02 15:15:28,944,189,-48,-60,9,0,31,-17,3,31.7,32.09,1018.12,1,0
2022-11-02 15:15:28,958,126,-74,-48,-6,16,33,-9,7,31.7,32.09,1018.12,1,0
2022-11-02 15:15:28,958,126,-74,-48,-6,16,33,-9,7,31.7,32.09,1018.12,1,0
2022-11-02 15:15:28,1255,-113,-115,-34,-2,-9,33,-6,5,31.7,32.09,1018.12,1,0
2022-11-02 15:15:28,1255,-113,-115,-34,-2,-9,33,-6,5,31.7,32.09,1018.12,1,0
2022-11-02 15:15:28,894,-298,117,-60,12,-9,32,-4,0,31.7,32.09,1018.12,1,0
2022-11-02 15:15:28,894,-298,117,-60,12,-9,32,-4,0,31.7,32.09,1018.12,1,0
2022-11-02 15:15:28,1255,144,-21,-50,-4,16,32,0,0,31.7,32.09,1018.12,1,0
2022-11-02 15:15:28,1255,144,-21,-50,-4,16,32,0,0,31.7,32.09,1018.12,1,0
2022-11-02 15:15:28,821,-113,-121,-18,-10,2,31,7,1,31.7,32.09,1018.12,1,0
2022-11-02 15:15:28,821,-113,-121,-18,-10,2,31,7,1,31.7,32.09,1018.12,1,0
2022-11-02 15:15:28,839,19,-208,-26,-5,-1,30,5,0,31.7,32.11,1018.06,1,0
2022-11-02 15:15:28,839,19,-208,-26,-5,-1,30,5,0,31.7,32.11,1018.06,1,0
2022-11-02 15:15:28,1253,-134,-163,-22,5,-9,28,9,1,31.7,32.11,1018.06,1,0
2022-11-02 15:15:28,1253,-134,-163,-22,5,-9,28,9,1,31.7,32.11,1018.06,1,0
2022-11-02 15:15:28,977,-281,54,-51,-8,0,29,11,-2,31.7,32.11,1018.06,1,0
2022-11-02 15:15:28,977,-281,54,-51,-8,0,29,11,-2,31.7,32.11,1018.06,1,0
2022-11-02 15:15:28,1044,-132,85,-78,5,0,26,12,0,31.7,32.11,1018.06,1,0
2022-11-02 15:15:28,1044,-132,85,-78,5,0,26,12,0,31.7,32.11,1018.06,1,0
2022-11-02 15:15:29,927,158,33,-116,-6,-5,26,17,-1,31.7,32.11,1018.06,1,0
2022-11-02 15:15:29,927,158,33,-116,-6,-5,26,17,-1,31.7,32.11,1018.06,1,0
2022-11-02 15:15:29,993,-1,29,-91,10,9,25,33,1,31.7,32.11,1018.06,1,0
2022-11-02 15:15:29,993,-1,29,-91,10,9,25,33,1,31.7,32.11,1018.06,1,0
2022-11-02 15:15:29,976,132,-23,-75,0,12,25,35,4,31.7,32.11,1018.06,1,0
2022-11-02 15:15:29,976,132,-23,-75,0,12,25,35,4,31.7,32.11,1018.06,1,0
2022-11-02 15:15:29,1091,-222,-35,-89,-3,2,29,42,9,31.7,32.11,1018.06,1,0
2022-11-02 15:15:29,1091,-222,-35,-89,-3,2,29,42,9,31.7,32.11,1018.06,1,0
2022-11-02 15:15:29,876,-197,97,-134,8,7,27,49,12,31.7,32.11,1018.06,1,0
2022-11-02 15:15:29,876,-197,97,-134,8,7,27,49,12,31.7,32.11,1018.06,1,0
2022-11-02 15:15:29,1100,-9,-60,-97,4,6,27,57,20,31.7,32.11,1018.06,1,0
2022-11-02 15:15:29,1100,-9,-60,-97,4,6,27,57,20,31.7,32.11,1018.06,1,0
2022-11-02 15:15:29,841,-160,-97,-101,-1,0,30,60,33,31.7,32.11,1018.16,1,0
2022-11-02 15:15:29,841,-160,-97,-101,-1,0,30,60,33,31.7,32.11,1018.16,1,0
2022-11-02 15:15:29,948,-117,-193,-89,12,-1,28,63,41,31.7,32.11,1018.16,1,0
2022-11-02 15:15:29,948,-117,-193,-89,12,-1,28,63,41,31.7,32.11,1018.16,1,0
2022-11-02 15:15:29,1481,-177,-25,-73,1,1,28,62,49,31.7,32.11,1018.16,1,0
2022-11-02 15:15:29,1481,-177,-25,-73,1,1,28,62,49,31.7,32.11,1018.16,1,0
2022-11-02 15:15:29,812,-97,273,-93,12,-14,29,64,55,31.7,32.11,1018.16,1,0
2022-11-02 15:15:29,812,-97,273,-93,12,-14,29,64,55,31.7,32.11,1018.16,1,0
2022-11-02 15:15:30,1054,-7,146,-140,4,-14,29,63,65,31.7,32.11,1018.16,1,0
2022-11-02 15:15:30,1054,-7,146,-140,4,-14,29,63,65,31.7,32.11,1018.16,1,0
2022-11-02 15:15:30,929,101,15,-133,-4,-14,28,61,72,31.7,32.11,1018.16,1,0
2022-11-02 15:15:30,929,101,15,-133,-4,-14,28,61,72,31.7,32.11,1018.16,1,0
2022-11-02 15:15:30,933,210,-23,-116,4,-3,26,55,84,31.7,32.11,1018.16,1,0
2022-11-02 15:15:30,933,210,-23,-116,4,-3,26,55,84,31.7,32.11,1018.16,1,0
2022-11-02 15:15:30,999,257,-31,-50,2,3,25,49,93,31.7,32.11,1018.16,1,0
2022-11-02 15:15:30,999,257,-31,-50,2,3,25,49,93,31.7,32.11,1018.16,1,0
2022-11-02 15:15:30,1188,5,-158,-54,-12,1,24,43,102,31.7,32.11,1018.16,1,0
2022-11-02 15:15:30,1188,5,-158,-54,-12,1,24,43,102,31.7,32.11,1018.16,1,0
2022-11-02 15:15:30,755,-160,126,-47,0,-6,26,39,98,31.7,32.11,1018.16,1,0
2022-11-02 15:15:30,755,-160,126,-47,0,-6,26,39,98,31.7,32.11,1018.16,1,0
2022-11-02 15:15:30,1266,175,-7,-26,-8,10,25,34,104,31.7,32.13,1018.14,1,0
2022-11-02 15:15:30,1266,175,-7,-26,-8,10,25,34,104,31.7,32.13,1018.14,1,0
2022-11-02 15:15:30,827,-50,-115,15,-21,7,25,32,98,31.7,32.13,1018.14,1,0
2022-11-02 15:15:30,827,-50,-115,15,-21,7,25,32,98,31.7,32.13,1018.14,1,0
2022-11-02 15:15:30,854,-31,-193,8,-7,3,29,27,101,31.7,32.13,1018.14,1,0
2022-11-02 15:15:30,854,-31,-193,8,-7,3,29,27,101,31.7,32.13,1018.14,1,0
2022-11-02 15:15:30,1241,-162,-201,9,1,10,31,29,94,31.7,32.13,1018.14,1,0
2022-11-02 15:15:30,1241,-162,-201,9,1,10,31,29,94,31.7,32.13,1018.14,1,0
2022-11-02 15:15:31,1325,-203,62,16,4,8,31,29,95,31.7,32.13,1018.14,1,0
2022-11-02 15:15:31,1325,-203,62,16,4,8,31,29,95,31.7,32.13,1018.14,1,0
2022-11-02 15:15:31,810,199,121,24,7,-7,34,29,98,31.7,32.13,1018.14,1,0
2022-11-02 15:15:31,810,199,121,24,7,-7,34,29,98,31.7,32.13,1018.14,1,0
2022-11-02 15:15:31,960,25,-21,-10,3,-28,34,31,97,31.7,32.13,1018.14,1,0
2022-11-02 15:15:31,960,25,-21,-10,3,-28,34,31,97,31.7,32.13,1018.14,1,0
2022-11-02 15:15:31,895,140,-68,-7,19,-3,34,34,96,31.7,32.13,1018.14,1,0
2022-11-02 15:15:31,895,140,-68,-7,19,-3,34,34,96,31.7,32.13,1018.14,1,0
2022-11-02 15:15:31,1013,105,-27,-33,9,18,32,32,97,31.7,32.13,1018.14,1,0
2022-11-02 15:15:31,1013,105,-27,-33,9,18,32,32,97,31.7,32.13,1018.14,1,0
2022-11-02 15:15:31,1503,60,-130,-15,-5,-12,32,29,102,31.7,32.13,1018.14,1,0
2022-11-02 15:15:31,1503,60,-130,-15,-5,-12,32,29,102,31.7,32.13,1018.14,1,0
2022-11-02 15:15:31,739,-162,52,14,-10,-13,33,29,102,31.7,32.13,1018.19,1,0
2022-11-02 15:15:31,739,-162,52,14,-10,-13,33,29,102,31.7,32.13,1018.19,1,0
2022-11-02 15:15:31,1220,80,13,12,-7,11,34,27,104,31.7,32.13,1018.19,1,0
2022-11-02 15:15:31,1220,80,13,12,-7,11,34,27,104,31.7,32.13,1018.19,1,0
2022-11-02 15:15:31,833,-87,-60,44,-11,6,34,29,100,31.7,32.13,1018.19,1,0
2022-11-02 15:15:31,833,-87,-60,44,-11,6,34,29,100,31.7,32.13,1018.19,1,0
2022-11-02 15:15:31,858,-74,-175,21,-3,-3,36,30,91,31.7,32.13,1018.19,1,0
2022-11-02 15:15:31,858,-74,-175,21,-3,-3,36,30,91,31.7,32.13,1018.19,1,0
2022-11-02 15:15:32,1132,-126,-117,0,9,2,39,34,89,31.7,32.13,1018.19,1,0
2022-11-02 15:15:32,1132,-126,-117,0,9,2,39,34,89,31.7,32.13,1018.19,1,0
2022-11-02 15:15:32,1426,-162,21,1,-1,12,38,33,90,31.7,32.13,1018.19,1,0
2022-11-02 15:15:32,1426,-162,21,1,-1,12,38,33,90,31.7,32.13,1018.19,1,0
2022-11-02 15:15:32,728,173,204,-12,11,-4,39,31,87,31.7,32.13,1018.19,1,0
2022-11-02 15:15:32,728,173,204,-12,11,-4,39,31,87,31.7,32.13,1018.19,1,0
2022-11-02 15:15:32,1005,-107,-19,-36,11,-18,42,29,87,31.7,32.13,1018.19,1,0
2022-11-02 15:15:32,1005,-107,-19,-36,11,-18,42,29,87,31.7,32.13,1018.19,1,0
